33, 1001
Michael A Robinson, Chris Jernigan, Subi Thakali
NOAA ESRL Chemical Sciences Laboratory and CIRES, U. of Colorado
NOAA Iodide CIMS Instrument
USOS
1, 1
2024, 07, 22, 2024, 07, 24
1
starttime_UTC, seconds_past_midnight, seconds_of_day_since_00:00:00_UTC
1
1
-9999
HNO3_NOAACIMS, pptv, Gas_HNO3_InSitu_S_AVMR, 
0
18
PI_CONTACT_INFO: 325 Broadway, R/CSD 7, Boulder, Colorado 80305; michael.a.robinson@noaa.gov; chris.jernigan@noaa.gov;
PLATFORM: NOAA CSL Mobile Lab
LOCATION: SLC, Utah
ASSOCIATED_DATA: 1Hz data also available on request.
INSTRUMENT_INFO: NOAA I- ToF CIMS
DATA_INFO: All data in parts per trillion by volume (pptv). 1 Hz data is available upon request.
UNCERTAINTY: TBD
ULOD_FLAG: -7777
ULOD_VALUE: N/A
LLOD_FLAG: -8888
LLOD_VALUE: N/A
DM_CONTACT_INFO: Nathan Howard; nathan.h.howard@noaa.gov
PROJECT_INFO: USOS, summer 2024. https://csl.noaa.gov/groups/csl7/measurements/2024usos/
STIPULATIONS_ON_USE: Users are strongly encouraged to contact the PI for proper data usage.
OTHER_COMMENTS: 
REVISION: RA
RA: Preliminary Data; For in-field use only
starttime_UTC, HNO3_NOAACIMS
     0, -9999.000
    60, -9999.000
   120, -9999.000
   180, -9999.000
   240, -9999.000
   300, -9999.000
   360, -9999.000
   420, -9999.000
   480, -9999.000
   540, -9999.000
   600, -9999.000
   660, -9999.000
   720, -9999.000
   780, -9999.000
   840, -9999.000
   900, -9999.000
   960, -9999.000
  1020, -9999.000
  1080, -9999.000
  1140, -9999.000
  1200, -9999.000
  1260, -9999.000
  1320, -9999.000
  1380, -9999.000
  1440, -9999.000
  1500, -9999.000
  1560, -9999.000
  1620, -9999.000
  1680, -9999.000
  1740, -9999.000
  1800, -9999.000
  1860, -9999.000
  1920, -9999.000
  1980, -9999.000
  2040, -9999.000
  2100, -9999.000
  2160, -9999.000
  2220, -9999.000
  2280, -9999.000
  2340, -9999.000
  2400, -9999.000
  2460, -9999.000
  2520, -9999.000
  2580, -9999.000
  2640, -9999.000
  2700, -9999.000
  2760, -9999.000
  2820, -9999.000
  2880, -9999.000
  2940, -9999.000
  3000, -9999.000
  3060, -9999.000
  3120, -9999.000
  3180, -9999.000
  3240, -9999.000
  3300, -9999.000
  3360, -9999.000
  3420, -9999.000
  3480, -9999.000
  3540, -9999.000
  3600, -9999.000
  3660, -9999.000
  3720, -9999.000
  3780, -9999.000
  3840, -9999.000
  3900, -9999.000
  3960, -9999.000
  4020, -9999.000
  4080, -9999.000
  4140, -9999.000
  4200, -9999.000
  4260, -9999.000
  4320, -9999.000
  4380, -9999.000
  4440, -9999.000
  4500, -9999.000
  4560, -9999.000
  4620, -9999.000
  4680, -9999.000
  4740, -9999.000
  4800, -9999.000
  4860, -9999.000
  4920, -9999.000
  4980, -9999.000
  5040, -9999.000
  5100, -9999.000
  5160, -9999.000
  5220, -9999.000
  5280, -9999.000
  5340, -9999.000
  5400, -9999.000
  5460, -9999.000
  5520, -9999.000
  5580, -9999.000
  5640, -9999.000
  5700, -9999.000
  5760, -9999.000
  5820, -9999.000
  5880, -9999.000
  5940, -9999.000
  6000, -9999.000
  6060, -9999.000
  6120, -9999.000
  6180, -9999.000
  6240, -9999.000
  6300, -9999.000
  6360, -9999.000
  6420, -9999.000
  6480, -9999.000
  6540, -9999.000
  6600, -9999.000
  6660, -9999.000
  6720, -9999.000
  6780, -9999.000
  6840, -9999.000
  6900, -9999.000
  6960, -9999.000
  7020, -9999.000
  7080, -9999.000
  7140, -9999.000
  7200, -9999.000
  7260, -9999.000
  7320, -9999.000
  7380, -9999.000
  7440, -9999.000
  7500, -9999.000
  7560, -9999.000
  7620, -9999.000
  7680, -9999.000
  7740, -9999.000
  7800, -9999.000
  7860, -9999.000
  7920, -9999.000
  7980, -9999.000
  8040, -9999.000
  8100, -9999.000
  8160, -9999.000
  8220, -9999.000
  8280, -9999.000
  8340, -9999.000
  8400, -9999.000
  8460, -9999.000
  8520, -9999.000
  8580, -9999.000
  8640, -9999.000
  8700, -9999.000
  8760, -9999.000
  8820, -9999.000
  8880, -9999.000
  8940, -9999.000
  9000, -9999.000
  9060, -9999.000
  9120, -9999.000
  9180, -9999.000
  9240, -9999.000
  9300, -9999.000
  9360, -9999.000
  9420, -9999.000
  9480, -9999.000
  9540, -9999.000
  9600, -9999.000
  9660, -9999.000
  9720, -9999.000
  9780, -9999.000
  9840, -9999.000
  9900, -9999.000
  9960, -9999.000
 10020, -9999.000
 10080, -9999.000
 10140, -9999.000
 10200, -9999.000
 10260, -9999.000
 10320, -9999.000
 10380, -9999.000
 10440, -9999.000
 10500, -9999.000
 10560, -9999.000
 10620, -9999.000
 10680, -9999.000
 10740, -9999.000
 10800, -9999.000
 10860, -9999.000
 10920, -9999.000
 10980, -9999.000
 11040, -9999.000
 11100, -9999.000
 11160, -9999.000
 11220, -9999.000
 11280, -9999.000
 11340, -9999.000
 11400, -9999.000
 11460, -9999.000
 11520, -9999.000
 11580, -9999.000
 11640, -9999.000
 11700, -9999.000
 11760, -9999.000
 11820, -9999.000
 11880, -9999.000
 11940, -9999.000
 12000, -9999.000
 12060, -9999.000
 12120, -9999.000
 12180, -9999.000
 12240, -9999.000
 12300, -9999.000
 12360, -9999.000
 12420, -9999.000
 12480, -9999.000
 12540, -9999.000
 12600, -9999.000
 12660, -9999.000
 12720, -9999.000
 12780, -9999.000
 12840, -9999.000
 12900, -9999.000
 12960, -9999.000
 13020, -9999.000
 13080, -9999.000
 13140, -9999.000
 13200, -9999.000
 13260, -9999.000
 13320, -9999.000
 13380, -9999.000
 13440, -9999.000
 13500, -9999.000
 13560, -9999.000
 13620, -9999.000
 13680, -9999.000
 13740, -9999.000
 13800, -9999.000
 13860, -9999.000
 13920, -9999.000
 13980, -9999.000
 14040, -9999.000
 14100, -9999.000
 14160, -9999.000
 14220, -9999.000
 14280, -9999.000
 14340, -9999.000
 14400, -9999.000
 14460, -9999.000
 14520, -9999.000
 14580, -9999.000
 14640, -9999.000
 14700, -9999.000
 14760, -9999.000
 14820, -9999.000
 14880, -9999.000
 14940, -9999.000
 15000, -9999.000
 15060, -9999.000
 15120, -9999.000
 15180, -9999.000
 15240, -9999.000
 15300, -9999.000
 15360, -9999.000
 15420, -9999.000
 15480, -9999.000
 15540, -9999.000
 15600, -9999.000
 15660, -9999.000
 15720, -9999.000
 15780, -9999.000
 15840, -9999.000
 15900, -9999.000
 15960, -9999.000
 16020, -9999.000
 16080, -9999.000
 16140, -9999.000
 16200, -9999.000
 16260, -9999.000
 16320, -9999.000
 16380, -9999.000
 16440, -9999.000
 16500, -9999.000
 16560, -9999.000
 16620, -9999.000
 16680, -9999.000
 16740, -9999.000
 16800, -9999.000
 16860, -9999.000
 16920, -9999.000
 16980, -9999.000
 17040, -9999.000
 17100, -9999.000
 17160, -9999.000
 17220, -9999.000
 17280, -9999.000
 17340, -9999.000
 17400, -9999.000
 17460, -9999.000
 17520, -9999.000
 17580, -9999.000
 17640, -9999.000
 17700, -9999.000
 17760, -9999.000
 17820, -9999.000
 17880, -9999.000
 17940, -9999.000
 18000, -9999.000
 18060, -9999.000
 18120, -9999.000
 18180, -9999.000
 18240, -9999.000
 18300, -9999.000
 18360, -9999.000
 18420, -9999.000
 18480, -9999.000
 18540, -9999.000
 18600, -9999.000
 18660, -9999.000
 18720, -9999.000
 18780, -9999.000
 18840, -9999.000
 18900, -9999.000
 18960, -9999.000
 19020, -9999.000
 19080, -9999.000
 19140, -9999.000
 19200, -9999.000
 19260, -9999.000
 19320, -9999.000
 19380, -9999.000
 19440, -9999.000
 19500, -9999.000
 19560, -9999.000
 19620, -9999.000
 19680, -9999.000
 19740, -9999.000
 19800, -9999.000
 19860, -9999.000
 19920, -9999.000
 19980, -9999.000
 20040, -9999.000
 20100, -9999.000
 20160, -9999.000
 20220, -9999.000
 20280, -9999.000
 20340, -9999.000
 20400, -9999.000
 20460, -9999.000
 20520, -9999.000
 20580, -9999.000
 20640, -9999.000
 20700, -9999.000
 20760, -9999.000
 20820, -9999.000
 20880, -9999.000
 20940, -9999.000
 21000, -9999.000
 21060, -9999.000
 21120, -9999.000
 21180, -9999.000
 21240, -9999.000
 21300, -9999.000
 21360, -9999.000
 21420, -9999.000
 21480, -9999.000
 21540, -9999.000
 21600, -9999.000
 21660, -9999.000
 21720, -9999.000
 21780, -9999.000
 21840, -9999.000
 21900, -9999.000
 21960, -9999.000
 22020, -9999.000
 22080, -9999.000
 22140, -9999.000
 22200, -9999.000
 22260, -9999.000
 22320, -9999.000
 22380, -9999.000
 22440, -9999.000
 22500, -9999.000
 22560, -9999.000
 22620, -9999.000
 22680, -9999.000
 22740, -9999.000
 22800, -9999.000
 22860, -9999.000
 22920, -9999.000
 22980, -9999.000
 23040, -9999.000
 23100, -9999.000
 23160, -9999.000
 23220, -9999.000
 23280, -9999.000
 23340, -9999.000
 23400, -9999.000
 23460, -9999.000
 23520, -9999.000
 23580, 150.613
 23640, 161.390
 23700, 159.448
 23760, 165.766
 23820, 158.133
 23880, 154.657
 23940, 153.307
 24000, 155.049
 24060, 160.891
 24120, 173.267
 24180, 177.334
 24240, 182.283
 24300, 175.028
 24360, 166.466
 24420, 170.445
 24480, 184.488
 24540, 193.099
 24600, 192.413
 24660, 188.228
 24720, 184.167
 24780, 186.754
 24840, 195.447
 24900, 205.895
 24960, 207.639
 25020, 205.494
 25080, 204.062
 25140, 198.733
 25200, 191.050
 25260, 196.634
 25320, 193.155
 25380, 203.776
 25440, 195.790
 25500, 182.647
 25560, 159.707
 25620, 141.724
 25680, 148.286
 25740, 157.624
 25800, 179.210
 25860, 187.143
 25920, 176.269
 25980, 161.688
 26040, 150.717
 26100, 152.641
 26160, 183.884
 26220, 206.226
 26280, 157.548
 26340, 138.319
 26400, 158.721
 26460, 191.342
 26520, 216.139
 26580, 207.405
 26640, 203.403
 26700, 202.395
 26760, 208.493
 26820, 224.835
 26880, 219.083
 26940, 208.314
 27000, 191.903
 27060, 187.138
 27120, -9999.000
 27180, 177.457
 27240, 181.603
 27300, 176.270
 27360, 169.138
 27420, 160.506
 27480, 156.190
 27540, 152.466
 27600, 157.508
 27660, 159.313
 27720, 156.758
 27780, 156.568
 27840, 151.845
 27900, 144.930
 27960, 141.574
 28020, 144.805
 28080, 146.396
 28140, 147.491
 28200, 147.287
 28260, 147.132
 28320, 146.712
 28380, 153.247
 28440, 151.647
 28500, 153.646
 28560, 150.386
 28620, 150.632
 28680, 157.896
 28740, 165.691
 28800, 162.786
 28860, 164.109
 28920, 164.242
 28980, -9999.000
 29040, 148.531
 29100, 156.857
 29160, 165.438
 29220, 162.669
 29280, 159.307
 29340, 157.515
 29400, 159.250
 29460, 176.545
 29520, 199.806
 29580, 202.376
 29640, 196.850
 29700, 189.127
 29760, 187.694
 29820, 193.132
 29880, 194.422
 29940, 200.717
 30000, 193.667
 30060, 189.188
 30120, 190.233
 30180, 188.658
 30240, 194.055
 30300, 189.197
 30360, 175.958
 30420, 169.736
 30480, 162.671
 30540, 167.368
 30600, 170.549
 30660, 167.787
 30720, 169.741
 30780, 168.767
 30840, -9999.000
 30900, 158.125
 30960, 167.804
 31020, 170.816
 31080, 166.435
 31140, 171.104
 31200, 169.363
 31260, 168.536
 31320, 173.552
 31380, 178.426
 31440, 176.621
 31500, 175.007
 31560, 166.760
 31620, 163.727
 31680, 165.436
 31740, 174.690
 31800, 173.871
 31860, 171.474
 31920, 169.188
 31980, 162.090
 32040, 162.378
 32100, 169.108
 32160, 168.121
 32220, 166.026
 32280, 159.151
 32340, 156.909
 32400, 153.645
 32460, 158.752
 32520, 162.266
 32580, 157.152
 32640, 154.385
 32700, -9999.000
 32760, 145.122
 32820, 155.453
 32880, 163.727
 32940, 167.245
 33000, 162.351
 33060, 156.263
 33120, 155.562
 33180, 151.701
 33240, 153.354
 33300, 151.898
 33360, 153.500
 33420, 156.418
 33480, 157.751
 33540, 160.687
 33600, 161.092
 33660, 164.453
 33720, 161.887
 33780, 155.153
 33840, 149.225
 33900, 153.398
 33960, 156.315
 34020, 154.108
 34080, 154.118
 34140, 148.841
 34200, 147.400
 34260, 143.352
 34320, 148.944
 34380, 150.245
 34440, 148.048
 34500, 145.415
 34560, -9999.000
 34620, 135.913
 34680, 144.152
 34740, 145.980
 34800, 146.919
 34860, 148.675
 34920, 149.763
 34980, 146.755
 35040, 150.918
 35100, 156.078
 35160, 153.880
 35220, 151.458
 35280, 145.374
 35340, 141.228
 35400, 142.052
 35460, 146.802
 35520, 147.843
 35580, 146.781
 35640, 142.568
 35700, 142.838
 35760, 148.760
 35820, 147.146
 35880, 148.050
 35940, 147.550
 36000, 143.652
 36060, 141.937
 36120, 145.055
 36180, 150.571
 36240, 151.891
 36300, 146.959
 36360, 143.566
 36420, 137.901
 36480, 140.940
 36540, 142.902
 36600, 141.013
 36660, 142.261
 36720, 139.129
 36780, 141.177
 36840, 146.800
 36900, 147.931
 36960, 146.617
 37020, 142.493
 37080, 144.887
 37140, 151.102
 37200, 156.538
 37260, 157.236
 37320, 154.243
 37380, 151.114
 37440, 154.771
 37500, 159.032
 37560, 160.943
 37620, 158.454
 37680, 155.815
 37740, 152.294
 37800, 153.927
 37860, 159.178
 37920, 160.386
 37980, 159.343
 38040, 153.879
 38100, 149.958
 38160, 154.023
 38220, 158.959
 38280, -9999.000
 38340, 146.080
 38400, 148.494
 38460, 155.400
 38520, 162.817
 38580, 167.258
 38640, 169.563
 38700, 164.382
 38760, 167.654
 38820, 176.283
 38880, 180.052
 38940, 174.968
 39000, 171.557
 39060, 168.736
 39120, 160.749
 39180, 159.920
 39240, 162.582
 39300, 164.326
 39360, 161.620
 39420, 160.961
 39480, 158.015
 39540, 164.999
 39600, 168.468
 39660, 163.449
 39720, 159.001
 39780, 156.275
 39840, 160.907
 39900, 163.047
 39960, 169.205
 40020, 169.156
 40080, 167.925
 40140, 148.698
 40200, 156.686
 40260, 167.135
 40320, 168.841
 40380, 166.930
 40440, 162.672
 40500, 155.231
 40560, 159.891
 40620, 167.505
 40680, 164.722
 40740, 158.521
 40800, 158.255
 40860, 165.197
 40920, 172.257
 40980, 174.092
 41040, 166.465
 41100, 161.406
 41160, 164.140
 41220, 163.842
 41280, 168.995
 41340, 168.240
 41400, 162.370
 41460, 160.818
 41520, 171.379
 41580, 170.959
 41640, 169.442
 41700, 168.250
 41760, 159.647
 41820, 159.018
 41880, 155.451
 41940, -9999.000
 42000, 140.763
 42060, 146.211
 42120, 151.275
 42180, 160.013
 42240, 169.953
 42300, 172.537
 42360, 171.250
 42420, 168.402
 42480, 169.159
 42540, 175.081
 42600, 187.030
 42660, 186.884
 42720, 183.684
 42780, 175.848
 42840, 174.241
 42900, 181.743
 42960, 183.871
 43020, 183.183
 43080, 181.481
 43140, 180.521
 43200, 183.193
 43260, 187.041
 43320, 183.807
 43380, 177.571
 43440, 175.316
 43500, 178.585
 43560, 182.325
 43620, 179.925
 43680, 175.738
 43740, 163.711
 43800, 158.239
 43860, 156.031
 43920, 158.822
 43980, 162.989
 44040, 163.643
 44100, 167.179
 44160, 180.416
 44220, 185.074
 44280, 183.563
 44340, 177.924
 44400, 177.808
 44460, 179.351
 44520, 183.318
 44580, 180.829
 44640, 183.911
 44700, 176.883
 44760, 177.769
 44820, 182.557
 44880, 190.426
 44940, 190.938
 45000, 192.614
 45060, 174.407
 45120, 171.780
 45180, 175.409
 45240, 179.389
 45300, 181.171
 45360, 184.882
 45420, 186.873
 45480, 175.845
 45540, 178.650
 45600, 177.587
 45660, -9999.000
 45720, 148.236
 45780, 157.874
 45840, 166.893
 45900, 170.000
 45960, 162.568
 46020, 154.093
 46080, 154.558
 46140, 150.268
 46200, 143.505
 46260, 136.772
 46320, 130.963
 46380, 126.218
 46440, 126.973
 46500, 135.155
 46560, 138.842
 46620, 135.476
 46680, 131.475
 46740, 129.968
 46800, 116.187
 46860, 136.849
 46920, 263.335
 46980, 275.298
 47040, 243.295
 47100, 227.990
 47160, 221.322
 47220, 206.537
 47280, 195.730
 47340, 191.012
 47400, 197.257
 47460, 202.376
 47520, -9999.000
 47580, 191.767
 47640, 181.489
 47700, 174.956
 47760, 176.843
 47820, 186.951
 47880, 184.524
 47940, 179.274
 48000, 178.654
 48060, 174.722
 48120, 177.525
 48180, 181.808
 48240, 180.771
 48300, 171.036
 48360, 171.011
 48420, 175.889
 48480, 188.045
 48540, 193.536
 48600, 191.364
 48660, 195.135
 48720, 191.917
 48780, 184.131
 48840, 185.112
 48900, 198.888
 48960, 191.856
 49020, 181.550
 49080, 181.356
 49140, 167.849
 49200, 172.412
 49260, 178.607
 49320, 184.610
 49380, -9999.000
 49440, 170.328
 49500, 172.345
 49560, 172.048
 49620, 183.922
 49680, 186.724
 49740, 185.237
 49800, 178.372
 49860, 178.060
 49920, 175.117
 49980, 172.983
 50040, 182.334
 50100, 181.264
 50160, 175.140
 50220, 176.832
 50280, 174.865
 50340, 170.456
 50400, 169.727
 50460, 178.699
 50520, 183.868
 50580, 188.074
 50640, 183.311
 50700, 177.881
 50760, 168.883
 50820, 169.256
 50880, 186.501
 50940, 193.754
 51000, 191.430
 51060, 185.749
 51120, 175.813
 51180, 180.922
 51240, -9999.000
 51300, 182.415
 51360, 195.215
 51420, 192.203
 51480, 187.972
 51540, 184.575
 51600, 187.719
 51660, 176.896
 51720, 176.152
 51780, 181.147
 51840, 192.538
 51900, 198.133
 51960, 189.476
 52020, 181.844
 52080, 180.140
 52140, 180.906
 52200, 173.106
 52260, 176.083
 52320, 179.085
 52380, 187.671
 52440, 200.121
 52500, 198.823
 52560, 198.186
 52620, 180.635
 52680, 179.872
 52740, 187.472
 52800, 186.985
 52860, 187.362
 52920, 183.407
 52980, 202.054
 53040, 203.090
 53100, -9999.000
 53160, 194.137
 53220, 188.325
 53280, 186.836
 53340, 194.354
 53400, 186.511
 53460, 178.970
 53520, 178.012
 53580, 177.852
 53640, 175.758
 53700, 169.329
 53760, 172.416
 53820, 182.575
 53880, 197.352
 53940, 195.037
 54000, 183.944
 54060, 187.292
 54120, 189.039
 54180, 200.296
 54240, 195.694
 54300, 195.708
 54360, 196.622
 54420, 200.188
 54480, 200.907
 54540, 207.324
 54600, 208.910
 54660, 207.710
 54720, 204.930
 54780, 209.207
 54840, 214.739
 54900, 204.539
 54960, 201.292
 55020, 194.497
 55080, 185.961
 55140, 185.640
 55200, 189.505
 55260, 203.912
 55320, 209.891
 55380, 203.558
 55440, 201.849
 55500, 206.161
 55560, 205.880
 55620, 203.199
 55680, 209.511
 55740, 210.267
 55800, 213.555
 55860, 209.833
 55920, 207.206
 55980, 206.701
 56040, 198.903
 56100, 202.569
 56160, 188.722
 56220, 191.172
 56280, 195.754
 56340, 194.341
 56400, 197.946
 56460, 203.415
 56520, 204.598
 56580, 197.352
 56640, 183.964
 56700, 201.883
 56760, -9999.000
 56820, 216.915
 56880, 227.388
 56940, 231.536
 57000, 231.004
 57060, 242.835
 57120, 244.122
 57180, 255.673
 57240, 254.628
 57300, 256.216
 57360, 254.325
 57420, 241.802
 57480, 245.851
 57540, 245.642
 57600, 247.444
 57660, 249.006
 57720, 246.068
 57780, 243.649
 57840, 231.493
 57900, 237.759
 57960, 240.629
 58020, 247.561
 58080, 254.662
 58140, 237.043
 58200, 236.662
 58260, 243.400
 58320, 262.308
 58380, 256.033
 58440, 255.370
 58500, 257.613
 58560, 256.048
 58620, -9999.000
 58680, 258.356
 58740, 250.391
 58800, 251.087
 58860, 250.479
 58920, 259.794
 58980, 269.168
 59040, 267.278
 59100, 256.665
 59160, 266.044
 59220, 264.379
 59280, 258.891
 59340, 261.117
 59400, 261.056
 59460, 259.108
 59520, 259.576
 59580, 264.787
 59640, 275.207
 59700, 286.121
 59760, 284.157
 59820, 298.139
 59880, 326.522
 59940, 330.065
 60000, 327.943
 60060, 314.568
 60120, 319.938
 60180, 308.000
 60240, 311.684
 60300, 326.792
 60360, 354.138
 60420, 362.785
 60480, -9999.000
 60540, -9999.000
 60600, -9999.000
 60660, -9999.000
 60720, -9999.000
 60780, -9999.000
 60840, -9999.000
 60900, -9999.000
 60960, -9999.000
 61020, -9999.000
 61080, -9999.000
 61140, -9999.000
 61200, -9999.000
 61260, -9999.000
 61320, -9999.000
 61380, -9999.000
 61440, -9999.000
 61500, -9999.000
 61560, -9999.000
 61620, -9999.000
 61680, -9999.000
 61740, -9999.000
 61800, -9999.000
 61860, -9999.000
 61920, -9999.000
 61980, -9999.000
 62040, -9999.000
 62100, -9999.000
 62160, -9999.000
 62220, -9999.000
 62280, -9999.000
 62340, -9999.000
 62400, -9999.000
 62460, -9999.000
 62520, -9999.000
 62580, -9999.000
 62640, -9999.000
 62700, -9999.000
 62760, -9999.000
 62820, -9999.000
 62880, -9999.000
 62940, -9999.000
 63000, -9999.000
 63060, -9999.000
 63120, -9999.000
 63180, -9999.000
 63240, -9999.000
 63300, -9999.000
 63360, -9999.000
 63420, -9999.000
 63480, -9999.000
 63540, -9999.000
 63600, -9999.000
 63660, -9999.000
 63720, -9999.000
 63780, -9999.000
 63840, -9999.000
 63900, -9999.000
 63960, -9999.000
 64020, -9999.000
 64080, -9999.000
 64140, -9999.000
 64200, -9999.000
 64260, -9999.000
 64320, -9999.000
 64380, -9999.000
 64440, -9999.000
 64500, -9999.000
 64560, -9999.000
 64620, -9999.000
 64680, -9999.000
 64740, -9999.000
 64800, -9999.000
 64860, -9999.000
 64920, -9999.000
 64980, -9999.000
 65040, -9999.000
 65100, -9999.000
 65160, -9999.000
 65220, -9999.000
 65280, -9999.000
 65340, -9999.000
 65400, -9999.000
 65460, -9999.000
 65520, -9999.000
 65580, -9999.000
 65640, -9999.000
 65700, -9999.000
 65760, -9999.000
 65820, -9999.000
 65880, -9999.000
 65940, -9999.000
 66000, -9999.000
 66060, -9999.000
 66120, -9999.000
 66180, -9999.000
 66240, -9999.000
 66300, -9999.000
 66360, -9999.000
 66420, -9999.000
 66480, -9999.000
 66540, -9999.000
 66600, -9999.000
 66660, -9999.000
 66720, -9999.000
 66780, -9999.000
 66840, -9999.000
 66900, -9999.000
 66960, -9999.000
 67020, -9999.000
 67080, -9999.000
 67140, -9999.000
 67200, -9999.000
 67260, -9999.000
 67320, -9999.000
 67380, -9999.000
 67440, -9999.000
 67500, -9999.000
 67560, -9999.000
 67620, -9999.000
 67680, -9999.000
 67740, -9999.000
 67800, -9999.000
 67860, -9999.000
 67920, -9999.000
 67980, -9999.000
 68040, -9999.000
 68100, -9999.000
 68160, -9999.000
 68220, -9999.000
 68280, -9999.000
 68340, -9999.000
 68400, -9999.000
 68460, -9999.000
 68520, -9999.000
 68580, -9999.000
 68640, -9999.000
 68700, -9999.000
 68760, -9999.000
 68820, -9999.000
 68880, -9999.000
 68940, -9999.000
 69000, -9999.000
 69060, -9999.000
 69120, -9999.000
 69180, -9999.000
 69240, -9999.000
 69300, -9999.000
 69360, -9999.000
 69420, -9999.000
 69480, -9999.000
 69540, -9999.000
 69600, -9999.000
 69660, -9999.000
 69720, -9999.000
 69780, -9999.000
 69840, -9999.000
 69900, -9999.000
 69960, -9999.000
 70020, -9999.000
 70080, -9999.000
 70140, -9999.000
 70200, -9999.000
 70260, -9999.000
 70320, -9999.000
 70380, -9999.000
 70440, -9999.000
 70500, -9999.000
 70560, -9999.000
 70620, -9999.000
 70680, -9999.000
 70740, -9999.000
 70800, -9999.000
 70860, -9999.000
 70920, -9999.000
 70980, -9999.000
 71040, -9999.000
 71100, -9999.000
 71160, -9999.000
 71220, -9999.000
 71280, -9999.000
 71340, -9999.000
 71400, -9999.000
 71460, -9999.000
 71520, -9999.000
 71580, -9999.000
 71640, -9999.000
 71700, -9999.000
 71760, -9999.000
 71820, -9999.000
 71880, -9999.000
 71940, -9999.000
 72000, -9999.000
 72060, -9999.000
 72120, -9999.000
 72180, -9999.000
 72240, -9999.000
 72300, -9999.000
 72360, -9999.000
 72420, -9999.000
 72480, -9999.000
 72540, -9999.000
 72600, -9999.000
 72660, -9999.000
 72720, -9999.000
 72780, -9999.000
 72840, -9999.000
 72900, -9999.000
 72960, -9999.000
 73020, -9999.000
 73080, -9999.000
 73140, -9999.000
 73200, -9999.000
 73260, -9999.000
 73320, -9999.000
 73380, -9999.000
 73440, -9999.000
 73500, -9999.000
 73560, -9999.000
 73620, -9999.000
 73680, -9999.000
 73740, -9999.000
 73800, -9999.000
 73860, -9999.000
 73920, -9999.000
 73980, -9999.000
 74040, -9999.000
 74100, -9999.000
 74160, -9999.000
 74220, -9999.000
 74280, -9999.000
 74340, -9999.000
 74400, -9999.000
 74460, -9999.000
 74520, -9999.000
 74580, -9999.000
 74640, -9999.000
 74700, -9999.000
 74760, -9999.000
 74820, -9999.000
 74880, -9999.000
 74940, -9999.000
 75000, -9999.000
 75060, -9999.000
 75120, -9999.000
 75180, -9999.000
 75240, -9999.000
 75300, -9999.000
 75360, -9999.000
 75420, -9999.000
 75480, -9999.000
 75540, -9999.000
 75600, -9999.000
 75660, -9999.000
 75720, -9999.000
 75780, -9999.000
 75840, -9999.000
 75900, -9999.000
 75960, -9999.000
 76020, -9999.000
 76080, -9999.000
 76140, -9999.000
 76200, -9999.000
 76260, -9999.000
 76320, -9999.000
 76380, -9999.000
 76440, -9999.000
 76500, -9999.000
 76560, -9999.000
 76620, -9999.000
 76680, -9999.000
 76740, -9999.000
 76800, -9999.000
 76860, -9999.000
 76920, -9999.000
 76980, -9999.000
 77040, -9999.000
 77100, -9999.000
 77160, -9999.000
 77220, -9999.000
 77280, -9999.000
 77340, -9999.000
 77400, -9999.000
 77460, -9999.000
 77520, -9999.000
 77580, -9999.000
 77640, -9999.000
 77700, -9999.000
 77760, -9999.000
 77820, -9999.000
 77880, -9999.000
 77940, -9999.000
 78000, -9999.000
 78060, -9999.000
 78120, -9999.000
 78180, -9999.000
 78240, -9999.000
 78300, -9999.000
 78360, -9999.000
 78420, -9999.000
 78480, -9999.000
 78540, -9999.000
 78600, -9999.000
 78660, -9999.000
 78720, -9999.000
 78780, -9999.000
 78840, -9999.000
 78900, -9999.000
 78960, -9999.000
 79020, -9999.000
 79080, -9999.000
 79140, -9999.000
 79200, -9999.000
 79260, -9999.000
 79320, -9999.000
 79380, -9999.000
 79440, -9999.000
 79500, -9999.000
 79560, -9999.000
 79620, -9999.000
 79680, -9999.000
 79740, -9999.000
 79800, -9999.000
 79860, -9999.000
 79920, -9999.000
 79980, -9999.000
 80040, -9999.000
 80100, -9999.000
 80160, -9999.000
 80220, -9999.000
 80280, -9999.000
 80340, -9999.000
 80400, -9999.000
 80460, -9999.000
 80520, -9999.000
 80580, -9999.000
 80640, -9999.000
 80700, -9999.000
 80760, -9999.000
 80820, -9999.000
 80880, -9999.000
 80940, -9999.000
 81000, -9999.000
 81060, -9999.000
 81120, -9999.000
 81180, -9999.000
 81240, -9999.000
 81300, -9999.000
 81360, -9999.000
 81420, -9999.000
 81480, -9999.000
 81540, -9999.000
 81600, -9999.000
 81660, -9999.000
 81720, -9999.000
 81780, -9999.000
 81840, -9999.000
 81900, -9999.000
 81960, -9999.000
 82020, -9999.000
 82080, -9999.000
 82140, -9999.000
 82200, -9999.000
 82260, -9999.000
 82320, -9999.000
 82380, -9999.000
 82440, -9999.000
 82500, -9999.000
 82560, -9999.000
 82620, -9999.000
 82680, -9999.000
 82740, -9999.000
 82800, -9999.000
 82860, -9999.000
 82920, -9999.000
 82980, -9999.000
 83040, -9999.000
 83100, -9999.000
 83160, -9999.000
 83220, -9999.000
 83280, -9999.000
 83340, -9999.000
 83400, -9999.000
 83460, -9999.000
 83520, -9999.000
 83580, -9999.000
 83640, -9999.000
 83700, -9999.000
 83760, -9999.000
 83820, -9999.000
 83880, -9999.000
 83940, -9999.000
 84000, -9999.000
 84060, -9999.000
 84120, -9999.000
 84180, -9999.000
 84240, -9999.000
 84300, -9999.000
 84360, -9999.000
 84420, -9999.000
 84480, -9999.000
 84540, -9999.000
 84600, -9999.000
 84660, -9999.000
 84720, -9999.000
 84780, -9999.000
 84840, -9999.000
 84900, -9999.000
 84960, -9999.000
 85020, -9999.000
 85080, -9999.000
 85140, -9999.000
 85200, -9999.000
 85260, -9999.000
 85320, -9999.000
 85380, -9999.000
 85440, -9999.000
 85500, -9999.000
 85560, -9999.000
 85620, -9999.000
 85680, -9999.000
 85740, -9999.000
 85800, -9999.000
 85860, -9999.000
 85920, -9999.000
 85980, -9999.000
 86040, -9999.000
 86100, -9999.000
 86160, -9999.000
 86220, -9999.000
 86280, -9999.000
 86340, -9999.000
