33, 1001
Michael A Robinson, Chris Jernigan, Subi Thakali
NOAA ESRL Chemical Sciences Laboratory and CIRES, U. of Colorado
NOAA Iodide CIMS Instrument
USOS
1, 1
2024, 07, 22, 2024, 07, 24
1
starttime_UTC, seconds_past_midnight, seconds_of_day_since_00:00:00_UTC
1
1
-9999
HNO2_NOAACIMS, pptv, Gas_HNO2_InSitu_S_AVMR, 
0
18
PI_CONTACT_INFO: 325 Broadway, R/CSD 7, Boulder, Colorado 80305; michael.a.robinson@noaa.gov; chris.jernigan@noaa.gov;
PLATFORM: NOAA CSL Mobile Lab
LOCATION: SLC, Utah
ASSOCIATED_DATA: 1Hz data also available on request.
INSTRUMENT_INFO: NOAA I- ToF CIMS
DATA_INFO: All data in parts per trillion by volume (pptv). 1 Hz data is available upon request.
UNCERTAINTY: TBD
ULOD_FLAG: -7777
ULOD_VALUE: N/A
LLOD_FLAG: -8888
LLOD_VALUE: N/A
DM_CONTACT_INFO: Nathan Howard; nathan.h.howard@noaa.gov
PROJECT_INFO: USOS, summer 2024. https://csl.noaa.gov/groups/csl7/measurements/2024usos/
STIPULATIONS_ON_USE: Users are strongly encouraged to contact the PI for proper data usage.
OTHER_COMMENTS: 
REVISION: RA
RA: Preliminary Data; For in-field use only
starttime_UTC, HNO2_NOAACIMS
     0, -9999.000
    60, -9999.000
   120, -9999.000
   180, -9999.000
   240, -9999.000
   300, -9999.000
   360, -9999.000
   420, -9999.000
   480, -9999.000
   540, -9999.000
   600, -9999.000
   660, -9999.000
   720, -9999.000
   780, -9999.000
   840, -9999.000
   900, -9999.000
   960, -9999.000
  1020, -9999.000
  1080, -9999.000
  1140, -9999.000
  1200, -9999.000
  1260, -9999.000
  1320, -9999.000
  1380, -9999.000
  1440, -9999.000
  1500, -9999.000
  1560, -9999.000
  1620, -9999.000
  1680, -9999.000
  1740, -9999.000
  1800, -9999.000
  1860, -9999.000
  1920, -9999.000
  1980, -9999.000
  2040, -9999.000
  2100, -9999.000
  2160, -9999.000
  2220, -9999.000
  2280, -9999.000
  2340, -9999.000
  2400, -9999.000
  2460, -9999.000
  2520, -9999.000
  2580, -9999.000
  2640, -9999.000
  2700, -9999.000
  2760, -9999.000
  2820, -9999.000
  2880, -9999.000
  2940, -9999.000
  3000, -9999.000
  3060, -9999.000
  3120, -9999.000
  3180, -9999.000
  3240, -9999.000
  3300, -9999.000
  3360, -9999.000
  3420, -9999.000
  3480, -9999.000
  3540, -9999.000
  3600, -9999.000
  3660, -9999.000
  3720, -9999.000
  3780, -9999.000
  3840, -9999.000
  3900, -9999.000
  3960, -9999.000
  4020, -9999.000
  4080, -9999.000
  4140, -9999.000
  4200, -9999.000
  4260, -9999.000
  4320, -9999.000
  4380, -9999.000
  4440, -9999.000
  4500, -9999.000
  4560, -9999.000
  4620, -9999.000
  4680, -9999.000
  4740, -9999.000
  4800, -9999.000
  4860, -9999.000
  4920, -9999.000
  4980, -9999.000
  5040, -9999.000
  5100, -9999.000
  5160, -9999.000
  5220, -9999.000
  5280, -9999.000
  5340, -9999.000
  5400, -9999.000
  5460, -9999.000
  5520, -9999.000
  5580, -9999.000
  5640, -9999.000
  5700, -9999.000
  5760, -9999.000
  5820, -9999.000
  5880, -9999.000
  5940, -9999.000
  6000, -9999.000
  6060, -9999.000
  6120, -9999.000
  6180, -9999.000
  6240, -9999.000
  6300, -9999.000
  6360, -9999.000
  6420, -9999.000
  6480, -9999.000
  6540, -9999.000
  6600, -9999.000
  6660, -9999.000
  6720, -9999.000
  6780, -9999.000
  6840, -9999.000
  6900, -9999.000
  6960, -9999.000
  7020, -9999.000
  7080, -9999.000
  7140, -9999.000
  7200, -9999.000
  7260, -9999.000
  7320, -9999.000
  7380, -9999.000
  7440, -9999.000
  7500, -9999.000
  7560, -9999.000
  7620, -9999.000
  7680, -9999.000
  7740, -9999.000
  7800, -9999.000
  7860, -9999.000
  7920, -9999.000
  7980, -9999.000
  8040, -9999.000
  8100, -9999.000
  8160, -9999.000
  8220, -9999.000
  8280, -9999.000
  8340, -9999.000
  8400, -9999.000
  8460, -9999.000
  8520, -9999.000
  8580, -9999.000
  8640, -9999.000
  8700, -9999.000
  8760, -9999.000
  8820, -9999.000
  8880, -9999.000
  8940, -9999.000
  9000, -9999.000
  9060, -9999.000
  9120, -9999.000
  9180, -9999.000
  9240, -9999.000
  9300, -9999.000
  9360, -9999.000
  9420, -9999.000
  9480, -9999.000
  9540, -9999.000
  9600, -9999.000
  9660, -9999.000
  9720, -9999.000
  9780, -9999.000
  9840, -9999.000
  9900, -9999.000
  9960, -9999.000
 10020, -9999.000
 10080, -9999.000
 10140, -9999.000
 10200, -9999.000
 10260, -9999.000
 10320, -9999.000
 10380, -9999.000
 10440, -9999.000
 10500, -9999.000
 10560, -9999.000
 10620, -9999.000
 10680, -9999.000
 10740, -9999.000
 10800, -9999.000
 10860, -9999.000
 10920, -9999.000
 10980, -9999.000
 11040, -9999.000
 11100, -9999.000
 11160, -9999.000
 11220, -9999.000
 11280, -9999.000
 11340, -9999.000
 11400, -9999.000
 11460, -9999.000
 11520, -9999.000
 11580, -9999.000
 11640, -9999.000
 11700, -9999.000
 11760, -9999.000
 11820, -9999.000
 11880, -9999.000
 11940, -9999.000
 12000, -9999.000
 12060, -9999.000
 12120, -9999.000
 12180, -9999.000
 12240, -9999.000
 12300, -9999.000
 12360, -9999.000
 12420, -9999.000
 12480, -9999.000
 12540, -9999.000
 12600, -9999.000
 12660, -9999.000
 12720, -9999.000
 12780, -9999.000
 12840, -9999.000
 12900, -9999.000
 12960, -9999.000
 13020, -9999.000
 13080, -9999.000
 13140, -9999.000
 13200, -9999.000
 13260, -9999.000
 13320, -9999.000
 13380, -9999.000
 13440, -9999.000
 13500, -9999.000
 13560, -9999.000
 13620, -9999.000
 13680, -9999.000
 13740, -9999.000
 13800, -9999.000
 13860, -9999.000
 13920, -9999.000
 13980, -9999.000
 14040, -9999.000
 14100, -9999.000
 14160, -9999.000
 14220, -9999.000
 14280, -9999.000
 14340, -9999.000
 14400, -9999.000
 14460, -9999.000
 14520, -9999.000
 14580, -9999.000
 14640, -9999.000
 14700, -9999.000
 14760, -9999.000
 14820, -9999.000
 14880, -9999.000
 14940, -9999.000
 15000, -9999.000
 15060, -9999.000
 15120, -9999.000
 15180, -9999.000
 15240, -9999.000
 15300, -9999.000
 15360, -9999.000
 15420, -9999.000
 15480, -9999.000
 15540, -9999.000
 15600, -9999.000
 15660, -9999.000
 15720, -9999.000
 15780, -9999.000
 15840, -9999.000
 15900, -9999.000
 15960, -9999.000
 16020, -9999.000
 16080, -9999.000
 16140, -9999.000
 16200, -9999.000
 16260, -9999.000
 16320, -9999.000
 16380, -9999.000
 16440, -9999.000
 16500, -9999.000
 16560, -9999.000
 16620, -9999.000
 16680, -9999.000
 16740, -9999.000
 16800, -9999.000
 16860, -9999.000
 16920, -9999.000
 16980, -9999.000
 17040, -9999.000
 17100, -9999.000
 17160, -9999.000
 17220, -9999.000
 17280, -9999.000
 17340, -9999.000
 17400, -9999.000
 17460, -9999.000
 17520, -9999.000
 17580, -9999.000
 17640, -9999.000
 17700, -9999.000
 17760, -9999.000
 17820, -9999.000
 17880, -9999.000
 17940, -9999.000
 18000, -9999.000
 18060, -9999.000
 18120, -9999.000
 18180, -9999.000
 18240, -9999.000
 18300, -9999.000
 18360, -9999.000
 18420, -9999.000
 18480, -9999.000
 18540, -9999.000
 18600, -9999.000
 18660, -9999.000
 18720, -9999.000
 18780, -9999.000
 18840, -9999.000
 18900, -9999.000
 18960, -9999.000
 19020, -9999.000
 19080, -9999.000
 19140, -9999.000
 19200, -9999.000
 19260, -9999.000
 19320, -9999.000
 19380, -9999.000
 19440, -9999.000
 19500, -9999.000
 19560, -9999.000
 19620, -9999.000
 19680, -9999.000
 19740, -9999.000
 19800, -9999.000
 19860, -9999.000
 19920, -9999.000
 19980, -9999.000
 20040, -9999.000
 20100, -9999.000
 20160, -9999.000
 20220, -9999.000
 20280, -9999.000
 20340, -9999.000
 20400, -9999.000
 20460, -9999.000
 20520, -9999.000
 20580, -9999.000
 20640, -9999.000
 20700, -9999.000
 20760, -9999.000
 20820, -9999.000
 20880, -9999.000
 20940, -9999.000
 21000, -9999.000
 21060, -9999.000
 21120, -9999.000
 21180, -9999.000
 21240, -9999.000
 21300, -9999.000
 21360, -9999.000
 21420, -9999.000
 21480, -9999.000
 21540, -9999.000
 21600, -9999.000
 21660, -9999.000
 21720, -9999.000
 21780, -9999.000
 21840, -9999.000
 21900, -9999.000
 21960, -9999.000
 22020, -9999.000
 22080, -9999.000
 22140, -9999.000
 22200, -9999.000
 22260, -9999.000
 22320, -9999.000
 22380, -9999.000
 22440, -9999.000
 22500, -9999.000
 22560, -9999.000
 22620, -9999.000
 22680, -9999.000
 22740, -9999.000
 22800, -9999.000
 22860, -9999.000
 22920, -9999.000
 22980, -9999.000
 23040, -9999.000
 23100, -9999.000
 23160, -9999.000
 23220, -9999.000
 23280, -9999.000
 23340, -9999.000
 23400, -9999.000
 23460, -9999.000
 23520, -9999.000
 23580, 36.374
 23640, 28.003
 23700, 11.292
 23760, 30.845
 23820, 21.675
 23880, 35.136
 23940, 39.162
 24000, 44.971
 24060, 49.524
 24120, 34.011
 24180, 43.263
 24240, 61.998
 24300, 53.160
 24360, 65.164
 24420, 73.066
 24480, 52.909
 24540, 64.357
 24600, 99.806
 24660, 97.353
 24720, 137.085
 24780, 159.465
 24840, 127.443
 24900, 70.140
 24960, 75.341
 25020, 58.858
 25080, 66.285
 25140, 63.645
 25200, 58.212
 25260, 65.160
 25320, 35.293
 25380, 59.352
 25440, 66.571
 25500, 66.705
 25560, 82.412
 25620, 82.177
 25680, 42.405
 25740, 24.111
 25800, 40.146
 25860, 23.089
 25920, 55.540
 25980, 56.113
 26040, 49.706
 26100, 12.269
 26160,  2.129
 26220, 36.905
 26280, 31.593
 26340, 11.261
 26400,  6.823
 26460,  9.529
 26520, 103.167
 26580, 60.340
 26640, 45.793
 26700, 16.006
 26760, 10.902
 26820, 58.544
 26880, 18.676
 26940, 11.900
 27000, 19.459
 27060,  5.030
 27120, -9999.000
 27180, 18.726
 27240, 11.137
 27300, 12.666
 27360, 19.325
 27420, 11.207
 27480, 18.996
 27540, 17.339
 27600,  7.014
 27660,  7.057
 27720, 11.164
 27780,  7.526
 27840, 11.213
 27900, 25.830
 27960,  7.491
 28020,  6.600
 28080,  7.426
 28140,  2.530
 28200, 11.050
 28260, 13.881
 28320, 10.540
 28380, 11.851
 28440,  5.234
 28500,  7.313
 28560,  7.162
 28620, 10.761
 28680,  6.792
 28740,  8.382
 28800,  0.653
 28860,  1.717
 28920,  6.811
 28980, -9999.000
 29040, 12.390
 29100,  7.916
 29160,  8.051
 29220, -5.611
 29280, 18.527
 29340, 13.185
 29400,  4.643
 29460,  3.465
 29520, -3.453
 29580,  3.465
 29640,  5.124
 29700, 13.013
 29760,  7.254
 29820,  2.810
 29880,  0.580
 29940, -3.747
 30000, -1.681
 30060,  4.133
 30120,  4.718
 30180, -1.718
 30240,  0.414
 30300,  0.051
 30360,  3.944
 30420,  6.872
 30480, 10.263
 30540,  0.305
 30600,  2.942
 30660, -1.539
 30720,  8.418
 30780, -3.135
 30840, -9999.000
 30900,  4.294
 30960, -1.068
 31020, -2.159
 31080,  2.927
 31140,  1.638
 31200,  8.565
 31260, 10.077
 31320,  0.791
 31380, -3.422
 31440,  2.910
 31500,  0.045
 31560,  7.931
 31620,  7.189
 31680,  3.472
 31740, -3.128
 31800,  6.540
 31860, -3.041
 31920,  3.320
 31980, 12.581
 32040,  2.691
 32100,  1.526
 32160, -0.513
 32220, -4.016
 32280,  2.645
 32340, 15.562
 32400,  3.486
 32460,  0.159
 32520, -0.652
 32580,  7.621
 32640,  1.905
 32700, -9999.000
 32760,  2.040
 32820,  2.769
 32880,  3.655
 32940,  2.878
 33000,  0.937
 33060, 17.215
 33120, 13.642
 33180,  4.379
 33240,  7.963
 33300,  4.100
 33360, 14.995
 33420, 29.986
 33480,  8.857
 33540, 11.324
 33600,  8.943
 33660,  3.374
 33720,  8.854
 33780, 18.124
 33840, 13.431
 33900,  8.694
 33960,  5.537
 34020,  7.934
 34080, 10.205
 34140, 12.926
 34200, 16.276
 34260, 14.611
 34320,  9.480
 34380,  9.276
 34440, 17.134
 34500, 16.062
 34560, -9999.000
 34620, 23.149
 34680, 10.302
 34740,  7.948
 34800, 16.001
 34860,  7.639
 34920, 16.582
 34980, 25.791
 35040,  7.649
 35100,  2.993
 35160, 19.973
 35220, 12.436
 35280, 13.246
 35340, 21.961
 35400,  8.784
 35460,  3.967
 35520,  9.153
 35580,  7.781
 35640, 14.617
 35700, 24.347
 35760,  5.638
 35820,  5.066
 35880,  9.650
 35940,  6.705
 36000, 19.321
 36060, 13.785
 36120,  7.743
 36180,  2.169
 36240, 10.343
 36300,  6.428
 36360, 19.904
 36420, 13.753
 36480,  5.543
 36540, -0.553
 36600, 11.996
 36660,  9.598
 36720, 13.519
 36780, 20.017
 36840,  6.802
 36900,  7.385
 36960, 11.360
 37020,  6.508
 37080, 11.614
 37140, 12.420
 37200,  0.678
 37260,  2.011
 37320,  8.977
 37380,  9.799
 37440, 11.793
 37500,  9.831
 37560,  3.973
 37620,  4.988
 37680, 13.944
 37740, 18.745
 37800,  5.955
 37860,  6.925
 37920,  5.232
 37980,  8.298
 38040,  7.111
 38100, 17.396
 38160,  5.900
 38220, -3.852
 38280, -9999.000
 38340,  7.019
 38400,  8.926
 38460, 13.717
 38520, -4.548
 38580,  0.475
 38640,  9.222
 38700,  2.032
 38760, 10.301
 38820,  8.581
 38880,  0.751
 38940, -0.683
 39000, 11.334
 39060,  7.970
 39120,  9.430
 39180, 10.755
 39240,  1.647
 39300,  4.454
 39360,  5.570
 39420,  8.960
 39480,  8.992
 39540, 16.525
 39600,  7.801
 39660,  0.471
 39720,  7.918
 39780,  9.382
 39840,  6.903
 39900,  3.033
 39960,  4.234
 40020,  4.983
 40080, -1.978
 40140, 15.261
 40200,  5.412
 40260,  2.250
 40320,  7.410
 40380,  0.027
 40440, 13.487
 40500, 16.704
 40560, -3.175
 40620,  5.241
 40680,  8.943
 40740, 11.284
 40800,  9.761
 40860,  8.118
 40920,  6.394
 40980,  2.358
 41040, 11.729
 41100, 20.193
 41160, 12.831
 41220,  6.359
 41280,  8.590
 41340,  6.414
 41400, 15.050
 41460, 13.866
 41520, 15.234
 41580,  8.019
 41640,  9.836
 41700, 14.576
 41760, 12.796
 41820, 22.787
 41880,  3.858
 41940, -9999.000
 42000,  6.016
 42060, 11.300
 42120, 17.975
 42180, 22.718
 42240,  8.559
 42300,  2.781
 42360, 15.030
 42420, 17.656
 42480, 10.466
 42540,  4.797
 42600,  7.927
 42660,  3.427
 42720, 10.736
 42780, 14.576
 42840,  9.185
 42900,  9.738
 42960,  5.352
 43020,  1.993
 43080,  6.614
 43140, 17.458
 43200,  9.480
 43260,  8.861
 43320,  6.371
 43380,  7.019
 43440, 10.450
 43500, 10.383
 43560,  5.388
 43620,  5.230
 43680,  7.318
 43740, 16.359
 43800, 18.289
 43860, -9.240
 43920,  3.230
 43980,  7.803
 44040, 10.450
 44100,  7.015
 44160,  7.451
 44220,  7.309
 44280,  3.087
 44340, 12.190
 44400, 14.111
 44460,  7.190
 44520,  9.845
 44580,  5.978
 44640,  6.501
 44700, 20.095
 44760, 14.225
 44820, -0.682
 44880,  4.873
 44940,  7.144
 45000, 10.995
 45060, 25.051
 45120, 18.941
 45180, 11.141
 45240, 12.684
 45300,  2.173
 45360, 20.502
 45420, 37.496
 45480, 10.452
 45540, 12.889
 45600, 13.214
 45660, -9999.000
 45720,  8.331
 45780, 19.664
 45840,  9.319
 45900,  1.378
 45960, 11.732
 46020, 21.843
 46080, 16.567
 46140,  6.012
 46200, 13.517
 46260,  9.937
 46320, 17.915
 46380, 24.004
 46440, 14.519
 46500,  0.603
 46560,  9.243
 46620, 13.793
 46680, 17.192
 46740, 16.569
 46800, 15.058
 46860, 18.811
 46920, 30.075
 46980, 31.357
 47040, 18.326
 47100, 10.103
 47160, 13.489
 47220, 15.696
 47280, 12.609
 47340, 19.811
 47400, 16.666
 47460, 16.231
 47520, -9999.000
 47580, 21.645
 47640, 21.535
 47700, 20.774
 47760, 15.839
 47820, 15.962
 47880, 15.887
 47940, 17.185
 48000, 14.785
 48060, 25.754
 48120, 13.406
 48180, 21.974
 48240, 49.121
 48300, 15.212
 48360, 16.008
 48420, 27.354
 48480, 21.839
 48540,  9.176
 48600, 11.773
 48660, 29.100
 48720, 30.632
 48780, 33.612
 48840, 27.692
 48900, 30.515
 48960, 37.303
 49020, 23.313
 49080, 30.647
 49140, 34.644
 49200, 11.660
 49260, 11.773
 49320,  6.081
 49380, -9999.000
 49440, 10.718
 49500, 13.290
 49560, 12.447
 49620, 16.235
 49680, 11.358
 49740, 11.856
 49800,  7.583
 49860, 10.029
 49920, 13.655
 49980, 18.124
 50040,  9.723
 50100, -0.231
 50160,  9.393
 50220, 13.015
 50280,  7.173
 50340, 15.790
 50400, 12.042
 50460, 11.846
 50520,  6.318
 50580,  2.761
 50640, 12.502
 50700, 14.869
 50760, 11.730
 50820,  9.069
 50880,  6.715
 50940, -2.397
 51000,  7.198
 51060,  4.858
 51120,  7.714
 51180,  5.710
 51240, -9999.000
 51300, 12.016
 51360,  7.538
 51420,  7.142
 51480, 10.745
 51540,  9.645
 51600, 15.674
 51660,  6.530
 51720,  9.557
 51780, 15.441
 51840,  3.732
 51900,  3.850
 51960, 21.567
 52020, 10.687
 52080, 16.648
 52140, 11.570
 52200,  9.032
 52260, 13.501
 52320,  9.936
 52380,  0.355
 52440,  6.308
 52500,  6.192
 52560,  6.220
 52620,  5.331
 52680,  4.345
 52740, 10.007
 52800,  5.968
 52860, 13.236
 52920,  9.933
 52980, 13.852
 53040, 16.485
 53100, -9999.000
 53160, 11.767
 53220,  8.529
 53280,  3.762
 53340, 11.703
 53400, 14.197
 53460, 20.073
 53520, 14.066
 53580,  6.040
 53640, 13.500
 53700, 29.586
 53760, 25.534
 53820,  5.218
 53880,  3.742
 53940, 14.015
 54000, 15.468
 54060, 16.066
 54120,  5.532
 54180, 10.883
 54240,  8.965
 54300,  9.879
 54360,  8.260
 54420, 12.645
 54480, 11.053
 54540, -2.311
 54600,  8.515
 54660, 15.454
 54720,  9.006
 54780,  1.792
 54840, 13.851
 54900,  8.973
 54960,  9.901
 55020,  8.839
 55080,  9.971
 55140,  5.975
 55200, 19.568
 55260, 32.508
 55320, 46.432
 55380, 19.880
 55440, 17.147
 55500, 26.076
 55560, 14.308
 55620, 23.847
 55680, 10.831
 55740,  3.797
 55800, 29.700
 55860, 19.215
 55920, 42.107
 55980, 40.754
 56040, 23.480
 56100, 18.300
 56160, 26.080
 56220, 32.398
 56280, 33.839
 56340, 27.597
 56400, 21.639
 56460, 18.419
 56520, 28.527
 56580, 20.633
 56640, 19.505
 56700, 44.422
 56760, -9999.000
 56820, 33.793
 56880, 20.924
 56940, 20.518
 57000,  6.158
 57060, 25.760
 57120, 29.092
 57180, 25.187
 57240,  4.242
 57300, 29.170
 57360, 48.109
 57420, 16.044
 57480,  9.940
 57540, 17.155
 57600, 16.372
 57660, 24.553
 57720, 26.168
 57780, 33.773
 57840, 33.476
 57900, 22.858
 57960, 16.534
 58020, 31.713
 58080, 40.052
 58140, 19.443
 58200, 11.890
 58260,  7.276
 58320, 36.660
 58380, 10.570
 58440, 13.515
 58500, 47.240
 58560, 20.034
 58620, -9999.000
 58680, 53.015
 58740, 38.279
 58800, 40.332
 58860, 19.245
 58920, 19.884
 58980, 23.712
 59040, 18.937
 59100, 12.008
 59160, 27.974
 59220, 45.165
 59280, 13.408
 59340,  8.403
 59400, 12.567
 59460, 18.751
 59520, 17.183
 59580, 14.408
 59640, 26.842
 59700, 44.839
 59760, 20.520
 59820,  3.444
 59880, 24.767
 59940, 42.815
 60000, 37.716
 60060, 19.520
 60120, 11.339
 60180, 13.989
 60240, 26.403
 60300, 54.576
 60360, 34.840
 60420, 31.002
 60480, -9999.000
 60540, -9999.000
 60600, -9999.000
 60660, -9999.000
 60720, -9999.000
 60780, -9999.000
 60840, -9999.000
 60900, -9999.000
 60960, -9999.000
 61020, -9999.000
 61080, -9999.000
 61140, -9999.000
 61200, -9999.000
 61260, -9999.000
 61320, -9999.000
 61380, -9999.000
 61440, -9999.000
 61500, -9999.000
 61560, -9999.000
 61620, -9999.000
 61680, -9999.000
 61740, -9999.000
 61800, -9999.000
 61860, -9999.000
 61920, -9999.000
 61980, -9999.000
 62040, -9999.000
 62100, -9999.000
 62160, -9999.000
 62220, -9999.000
 62280, -9999.000
 62340, -9999.000
 62400, -9999.000
 62460, -9999.000
 62520, -9999.000
 62580, -9999.000
 62640, -9999.000
 62700, -9999.000
 62760, -9999.000
 62820, -9999.000
 62880, -9999.000
 62940, -9999.000
 63000, -9999.000
 63060, -9999.000
 63120, -9999.000
 63180, -9999.000
 63240, -9999.000
 63300, -9999.000
 63360, -9999.000
 63420, -9999.000
 63480, -9999.000
 63540, -9999.000
 63600, -9999.000
 63660, -9999.000
 63720, -9999.000
 63780, -9999.000
 63840, -9999.000
 63900, -9999.000
 63960, -9999.000
 64020, -9999.000
 64080, -9999.000
 64140, -9999.000
 64200, -9999.000
 64260, -9999.000
 64320, -9999.000
 64380, -9999.000
 64440, -9999.000
 64500, -9999.000
 64560, -9999.000
 64620, -9999.000
 64680, -9999.000
 64740, -9999.000
 64800, -9999.000
 64860, -9999.000
 64920, -9999.000
 64980, -9999.000
 65040, -9999.000
 65100, -9999.000
 65160, -9999.000
 65220, -9999.000
 65280, -9999.000
 65340, -9999.000
 65400, -9999.000
 65460, -9999.000
 65520, -9999.000
 65580, -9999.000
 65640, -9999.000
 65700, -9999.000
 65760, -9999.000
 65820, -9999.000
 65880, -9999.000
 65940, -9999.000
 66000, -9999.000
 66060, -9999.000
 66120, -9999.000
 66180, -9999.000
 66240, -9999.000
 66300, -9999.000
 66360, -9999.000
 66420, -9999.000
 66480, -9999.000
 66540, -9999.000
 66600, -9999.000
 66660, -9999.000
 66720, -9999.000
 66780, -9999.000
 66840, -9999.000
 66900, -9999.000
 66960, -9999.000
 67020, -9999.000
 67080, -9999.000
 67140, -9999.000
 67200, -9999.000
 67260, -9999.000
 67320, -9999.000
 67380, -9999.000
 67440, -9999.000
 67500, -9999.000
 67560, -9999.000
 67620, -9999.000
 67680, -9999.000
 67740, -9999.000
 67800, -9999.000
 67860, -9999.000
 67920, -9999.000
 67980, -9999.000
 68040, -9999.000
 68100, -9999.000
 68160, -9999.000
 68220, -9999.000
 68280, -9999.000
 68340, -9999.000
 68400, -9999.000
 68460, -9999.000
 68520, -9999.000
 68580, -9999.000
 68640, -9999.000
 68700, -9999.000
 68760, -9999.000
 68820, -9999.000
 68880, -9999.000
 68940, -9999.000
 69000, -9999.000
 69060, -9999.000
 69120, -9999.000
 69180, -9999.000
 69240, -9999.000
 69300, -9999.000
 69360, -9999.000
 69420, -9999.000
 69480, -9999.000
 69540, -9999.000
 69600, -9999.000
 69660, -9999.000
 69720, -9999.000
 69780, -9999.000
 69840, -9999.000
 69900, -9999.000
 69960, -9999.000
 70020, -9999.000
 70080, -9999.000
 70140, -9999.000
 70200, -9999.000
 70260, -9999.000
 70320, -9999.000
 70380, -9999.000
 70440, -9999.000
 70500, -9999.000
 70560, -9999.000
 70620, -9999.000
 70680, -9999.000
 70740, -9999.000
 70800, -9999.000
 70860, -9999.000
 70920, -9999.000
 70980, -9999.000
 71040, -9999.000
 71100, -9999.000
 71160, -9999.000
 71220, -9999.000
 71280, -9999.000
 71340, -9999.000
 71400, -9999.000
 71460, -9999.000
 71520, -9999.000
 71580, -9999.000
 71640, -9999.000
 71700, -9999.000
 71760, -9999.000
 71820, -9999.000
 71880, -9999.000
 71940, -9999.000
 72000, -9999.000
 72060, -9999.000
 72120, -9999.000
 72180, -9999.000
 72240, -9999.000
 72300, -9999.000
 72360, -9999.000
 72420, -9999.000
 72480, -9999.000
 72540, -9999.000
 72600, -9999.000
 72660, -9999.000
 72720, -9999.000
 72780, -9999.000
 72840, -9999.000
 72900, -9999.000
 72960, -9999.000
 73020, -9999.000
 73080, -9999.000
 73140, -9999.000
 73200, -9999.000
 73260, -9999.000
 73320, -9999.000
 73380, -9999.000
 73440, -9999.000
 73500, -9999.000
 73560, -9999.000
 73620, -9999.000
 73680, -9999.000
 73740, -9999.000
 73800, -9999.000
 73860, -9999.000
 73920, -9999.000
 73980, -9999.000
 74040, -9999.000
 74100, -9999.000
 74160, -9999.000
 74220, -9999.000
 74280, -9999.000
 74340, -9999.000
 74400, -9999.000
 74460, -9999.000
 74520, -9999.000
 74580, -9999.000
 74640, -9999.000
 74700, -9999.000
 74760, -9999.000
 74820, -9999.000
 74880, -9999.000
 74940, -9999.000
 75000, -9999.000
 75060, -9999.000
 75120, -9999.000
 75180, -9999.000
 75240, -9999.000
 75300, -9999.000
 75360, -9999.000
 75420, -9999.000
 75480, -9999.000
 75540, -9999.000
 75600, -9999.000
 75660, -9999.000
 75720, -9999.000
 75780, -9999.000
 75840, -9999.000
 75900, -9999.000
 75960, -9999.000
 76020, -9999.000
 76080, -9999.000
 76140, -9999.000
 76200, -9999.000
 76260, -9999.000
 76320, -9999.000
 76380, -9999.000
 76440, -9999.000
 76500, -9999.000
 76560, -9999.000
 76620, -9999.000
 76680, -9999.000
 76740, -9999.000
 76800, -9999.000
 76860, -9999.000
 76920, -9999.000
 76980, -9999.000
 77040, -9999.000
 77100, -9999.000
 77160, -9999.000
 77220, -9999.000
 77280, -9999.000
 77340, -9999.000
 77400, -9999.000
 77460, -9999.000
 77520, -9999.000
 77580, -9999.000
 77640, -9999.000
 77700, -9999.000
 77760, -9999.000
 77820, -9999.000
 77880, -9999.000
 77940, -9999.000
 78000, -9999.000
 78060, -9999.000
 78120, -9999.000
 78180, -9999.000
 78240, -9999.000
 78300, -9999.000
 78360, -9999.000
 78420, -9999.000
 78480, -9999.000
 78540, -9999.000
 78600, -9999.000
 78660, -9999.000
 78720, -9999.000
 78780, -9999.000
 78840, -9999.000
 78900, -9999.000
 78960, -9999.000
 79020, -9999.000
 79080, -9999.000
 79140, -9999.000
 79200, -9999.000
 79260, -9999.000
 79320, -9999.000
 79380, -9999.000
 79440, -9999.000
 79500, -9999.000
 79560, -9999.000
 79620, -9999.000
 79680, -9999.000
 79740, -9999.000
 79800, -9999.000
 79860, -9999.000
 79920, -9999.000
 79980, -9999.000
 80040, -9999.000
 80100, -9999.000
 80160, -9999.000
 80220, -9999.000
 80280, -9999.000
 80340, -9999.000
 80400, -9999.000
 80460, -9999.000
 80520, -9999.000
 80580, -9999.000
 80640, -9999.000
 80700, -9999.000
 80760, -9999.000
 80820, -9999.000
 80880, -9999.000
 80940, -9999.000
 81000, -9999.000
 81060, -9999.000
 81120, -9999.000
 81180, -9999.000
 81240, -9999.000
 81300, -9999.000
 81360, -9999.000
 81420, -9999.000
 81480, -9999.000
 81540, -9999.000
 81600, -9999.000
 81660, -9999.000
 81720, -9999.000
 81780, -9999.000
 81840, -9999.000
 81900, -9999.000
 81960, -9999.000
 82020, -9999.000
 82080, -9999.000
 82140, -9999.000
 82200, -9999.000
 82260, -9999.000
 82320, -9999.000
 82380, -9999.000
 82440, -9999.000
 82500, -9999.000
 82560, -9999.000
 82620, -9999.000
 82680, -9999.000
 82740, -9999.000
 82800, -9999.000
 82860, -9999.000
 82920, -9999.000
 82980, -9999.000
 83040, -9999.000
 83100, -9999.000
 83160, -9999.000
 83220, -9999.000
 83280, -9999.000
 83340, -9999.000
 83400, -9999.000
 83460, -9999.000
 83520, -9999.000
 83580, -9999.000
 83640, -9999.000
 83700, -9999.000
 83760, -9999.000
 83820, -9999.000
 83880, -9999.000
 83940, -9999.000
 84000, -9999.000
 84060, -9999.000
 84120, -9999.000
 84180, -9999.000
 84240, -9999.000
 84300, -9999.000
 84360, -9999.000
 84420, -9999.000
 84480, -9999.000
 84540, -9999.000
 84600, -9999.000
 84660, -9999.000
 84720, -9999.000
 84780, -9999.000
 84840, -9999.000
 84900, -9999.000
 84960, -9999.000
 85020, -9999.000
 85080, -9999.000
 85140, -9999.000
 85200, -9999.000
 85260, -9999.000
 85320, -9999.000
 85380, -9999.000
 85440, -9999.000
 85500, -9999.000
 85560, -9999.000
 85620, -9999.000
 85680, -9999.000
 85740, -9999.000
 85800, -9999.000
 85860, -9999.000
 85920, -9999.000
 85980, -9999.000
 86040, -9999.000
 86100, -9999.000
 86160, -9999.000
 86220, -9999.000
 86280, -9999.000
 86340, -9999.000
