33, 1001
Michael A Robinson, Chris Jernigan, Subi Thakali
NOAA ESRL Chemical Sciences Laboratory and CIRES, U. of Colorado
NOAA Iodide CIMS Instrument
USOS
1, 1
2024, 07, 31, 2024, 08, 01
1
starttime_UTC, seconds_past_midnight, seconds_of_day_since_00:00:00_UTC
1
1
-9999
N2O5_NOAACIMS, pptv, Gas_N2O5_InSitu_S_AVMR, 
0
18
PI_CONTACT_INFO: 325 Broadway, R/CSD 7, Boulder, Colorado 80305; michael.a.robinson@noaa.gov; chris.jernigan@noaa.gov;
PLATFORM: NOAA CSL Mobile Lab
LOCATION: SLC, Utah
ASSOCIATED_DATA: 1Hz data also available on request.
INSTRUMENT_INFO: NOAA I- ToF CIMS
DATA_INFO: All data in parts per trillion by volume (pptv). 1 Hz data is available upon request.
UNCERTAINTY: TBD
ULOD_FLAG: -7777
ULOD_VALUE: N/A
LLOD_FLAG: -8888
LLOD_VALUE: N/A
DM_CONTACT_INFO: Nathan Howard; nathan.h.howard@noaa.gov
PROJECT_INFO: USOS, summer 2024. https://csl.noaa.gov/groups/csl7/measurements/2024usos/
STIPULATIONS_ON_USE: Users are strongly encouraged to contact the PI for proper data usage.
OTHER_COMMENTS: 
REVISION: RA
RA: Preliminary Data; For in-field use only
starttime_UTC, N2O5_NOAACIMS
     0, -9999.000
    60, -9999.000
   120, -9999.000
   180, -9999.000
   240, -9999.000
   300, -9999.000
   360, -9999.000
   420, -9999.000
   480, -9999.000
   540, -9999.000
   600, -9999.000
   660, -9999.000
   720, -9999.000
   780, -9999.000
   840, -9999.000
   900, -9999.000
   960, -9999.000
  1020, -9999.000
  1080, -9999.000
  1140, -9999.000
  1200, -9999.000
  1260, -9999.000
  1320, -9999.000
  1380, -9999.000
  1440, -9999.000
  1500, -9999.000
  1560, -9999.000
  1620, -9999.000
  1680, -9999.000
  1740, -9999.000
  1800, -9999.000
  1860, -9999.000
  1920, -9999.000
  1980, -9999.000
  2040, -9999.000
  2100, -9999.000
  2160, -9999.000
  2220, -9999.000
  2280, -9999.000
  2340, -9999.000
  2400, -9999.000
  2460, -9999.000
  2520, -9999.000
  2580, -9999.000
  2640, -9999.000
  2700, -9999.000
  2760, -9999.000
  2820, -9999.000
  2880, -9999.000
  2940, -9999.000
  3000, -9999.000
  3060, -9999.000
  3120, -9999.000
  3180, -9999.000
  3240, -9999.000
  3300, -9999.000
  3360, -9999.000
  3420, -9999.000
  3480, -9999.000
  3540, -9999.000
  3600, -9999.000
  3660, -9999.000
  3720, -9999.000
  3780, -9999.000
  3840, -9999.000
  3900, -9999.000
  3960, -9999.000
  4020, -9999.000
  4080, -9999.000
  4140, -9999.000
  4200, -9999.000
  4260, -9999.000
  4320, -9999.000
  4380, -9999.000
  4440, -9999.000
  4500, -9999.000
  4560, -9999.000
  4620, -9999.000
  4680, -9999.000
  4740, -9999.000
  4800, -9999.000
  4860, -9999.000
  4920, -9999.000
  4980, -9999.000
  5040, -9999.000
  5100, -9999.000
  5160, -9999.000
  5220, -9999.000
  5280, -9999.000
  5340, -9999.000
  5400, -9999.000
  5460, -9999.000
  5520, -9999.000
  5580, -9999.000
  5640, -9999.000
  5700, -9999.000
  5760, -9999.000
  5820, -9999.000
  5880, -9999.000
  5940, -9999.000
  6000, -9999.000
  6060, -9999.000
  6120, -9999.000
  6180, -9999.000
  6240, -9999.000
  6300, -9999.000
  6360, -9999.000
  6420, -9999.000
  6480, -9999.000
  6540, -9999.000
  6600,  0.859
  6660,  0.935
  6720,  0.658
  6780,  0.749
  6840,  0.754
  6900,  0.827
  6960,  1.114
  7020,  1.190
  7080,  0.743
  7140,  0.877
  7200,  0.905
  7260,  1.270
  7320,  1.036
  7380,  1.386
  7440,  0.893
  7500,  1.438
  7560,  1.517
  7620,  1.599
  7680,  2.426
  7740,  1.979
  7800,  2.068
  7860,  2.405
  7920,  3.551
  7980,  3.340
  8040,  3.260
  8100,  3.747
  8160, -9999.000
  8220,  7.669
  8280,  7.413
  8340,  7.321
  8400,  6.899
  8460,  7.843
  8520,  7.758
  8580,  8.277
  8640,  6.672
  8700,  4.395
  8760,  3.351
  8820,  2.308
  8880,  2.475
  8940,  2.367
  9000,  2.354
  9060,  3.210
  9120,  3.346
  9180,  2.616
  9240,  2.610
  9300,  2.038
  9360,  2.157
  9420,  2.019
  9480,  2.070
  9540,  2.229
  9600,  2.699
  9660,  3.167
  9720,  3.297
  9780,  3.240
  9840,  3.405
  9900,  2.648
  9960,  2.287
 10020,  1.495
 10080,  2.098
 10140,  1.729
 10200,  1.923
 10260,  1.944
 10320,  1.612
 10380,  1.986
 10440,  2.498
 10500,  2.085
 10560,  1.962
 10620,  2.180
 10680,  1.801
 10740,  2.010
 10800,  1.632
 10860,  1.825
 10920,  1.560
 10980,  1.536
 11040,  1.297
 11100,  1.216
 11160,  1.231
 11220,  1.266
 11280,  1.586
 11340,  1.442
 11400,  1.672
 11460,  2.120
 11520,  2.280
 11580,  2.405
 11640,  2.232
 11700,  1.880
 11760,  1.301
 11820,  1.729
 11880,  1.541
 11940,  1.383
 12000,  1.350
 12060,  1.190
 12120,  1.370
 12180,  1.332
 12240,  1.537
 12300,  1.437
 12360,  1.770
 12420,  2.594
 12480,  2.128
 12540,  1.660
 12600,  1.591
 12660,  2.145
 12720,  2.863
 12780,  2.106
 12840,  1.987
 12900,  2.577
 12960,  2.258
 13020,  2.646
 13080,  2.749
 13140,  2.867
 13200,  3.274
 13260,  2.872
 13320,  2.584
 13380,  1.949
 13440,  1.883
 13500,  1.901
 13560,  1.874
 13620,  2.592
 13680,  2.312
 13740,  2.389
 13800,  1.891
 13860,  1.778
 13920,  2.015
 13980,  2.386
 14040,  2.519
 14100,  2.568
 14160,  2.182
 14220,  1.943
 14280,  1.910
 14340,  2.294
 14400,  3.001
 14460,  2.262
 14520,  2.358
 14580,  2.225
 14640,  1.975
 14700,  2.628
 14760,  2.837
 14820,  2.715
 14880,  1.918
 14940,  1.782
 15000,  2.139
 15060,  2.194
 15120,  1.941
 15180,  2.842
 15240,  5.419
 15300,  5.371
 15360,  2.346
 15420,  2.936
 15480,  3.344
 15540, -9999.000
 15600,  2.037
 15660,  1.860
 15720,  2.306
 15780,  2.518
 15840,  2.550
 15900,  2.724
 15960,  1.417
 16020,  2.366
 16080,  3.148
 16140,  3.687
 16200,  2.705
 16260,  3.566
 16320,  5.492
 16380,  4.915
 16440,  2.966
 16500,  1.731
 16560,  1.663
 16620,  5.727
 16680,  4.583
 16740,  4.263
 16800,  2.970
 16860,  3.247
 16920,  3.936
 16980,  5.277
 17040,  5.724
 17100,  4.614
 17160,  6.934
 17220,  4.616
 17280,  3.694
 17340,  3.374
 17400,  2.109
 17460,  3.608
 17520,  5.132
 17580,  5.557
 17640,  4.360
 17700,  4.459
 17760,  4.610
 17820,  7.523
 17880,  8.556
 17940,  7.307
 18000,  8.441
 18060,  6.981
 18120,  5.496
 18180,  7.836
 18240,  5.616
 18300,  9.344
 18360, 10.701
 18420, 12.841
 18480,  7.280
 18540,  6.396
 18600,  7.957
 18660, 12.873
 18720,  8.822
 18780,  8.698
 18840, 16.165
 18900, 19.747
 18960, 12.986
 19020, 10.796
 19080,  9.527
 19140,  9.748
 19200,  9.668
 19260, -9999.000
 19320, 20.977
 19380, 11.555
 19440, 19.342
 19500, 13.872
 19560,  8.424
 19620, 10.344
 19680, 17.943
 19740, 21.664
 19800, 36.806
 19860, 27.595
 19920,  9.444
 19980, 13.888
 20040, 35.166
 20100, 22.724
 20160, 27.321
 20220, 39.494
 20280, 40.808
 20340, 48.508
 20400, 28.819
 20460, 29.552
 20520, 34.781
 20580, 91.043
 20640, 103.340
 20700, 82.603
 20760, 49.604
 20820, 56.260
 20880, 75.180
 20940, 54.333
 21000, 35.907
 21060, 61.925
 21120, 55.832
 21180, 71.420
 21240, 61.569
 21300, 84.478
 21360, 89.578
 21420, 88.126
 21480, 90.438
 21540, 82.938
 21600, 73.653
 21660, 80.674
 21720, 61.810
 21780, 43.749
 21840, 40.186
 21900, 53.395
 21960, 52.139
 22020, 59.402
 22080, 44.868
 22140, 51.359
 22200, 53.644
 22260, 48.327
 22320, 60.995
 22380, 47.248
 22440, 34.494
 22500, 54.431
 22560, 48.490
 22620, 39.203
 22680, 41.220
 22740, 62.509
 22800, 85.953
 22860, 100.272
 22920, -9999.000
 22980, 28.874
 23040, 26.397
 23100, 24.532
 23160, 18.657
 23220, 15.646
 23280, 31.271
 23340, 25.626
 23400, 32.280
 23460, 17.703
 23520, 38.237
 23580, 41.146
 23640, 19.897
 23700, 34.684
 23760, 27.630
 23820, 28.967
 23880, 30.759
 23940, 50.676
 24000, 49.479
 24060, 49.648
 24120, 34.927
 24180, 54.004
 24240, 58.457
 24300, 60.733
 24360, 62.198
 24420, 114.869
 24480, 103.173
 24540, 47.472
 24600, 58.183
 24660, 70.897
 24720, 35.702
 24780, -9999.000
 24840, 53.632
 24900, 70.321
 24960, 79.064
 25020, 44.291
 25080, 26.300
 25140, 20.401
 25200, 33.884
 25260, 81.506
 25320, 57.071
 25380, 40.029
 25440, 27.623
 25500, 13.996
 25560, 24.610
 25620, 16.985
 25680, 32.826
 25740, 39.423
 25800, 36.272
 25860, 54.960
 25920, 40.583
 25980, 47.702
 26040, 60.873
 26100, 64.495
 26160, 56.348
 26220, 39.637
 26280, 30.581
 26340, 39.469
 26400, 44.651
 26460, 61.188
 26520, 71.463
 26580, 63.297
 26640, -9999.000
 26700, 45.194
 26760, 41.952
 26820, 36.852
 26880, 39.777
 26940, 103.537
 27000, 70.792
 27060, 71.435
 27120, 90.891
 27180, 54.875
 27240, 116.434
 27300, 58.033
 27360, 58.064
 27420, 44.969
 27480, 40.129
 27540, 25.890
 27600, 25.774
 27660, 21.631
 27720, 28.261
 27780, 58.549
 27840, 66.136
 27900, 59.888
 27960, 66.784
 28020, 74.297
 28080, 65.830
 28140, 60.439
 28200, 75.596
 28260, 101.457
 28320, 91.582
 28380, 121.100
 28440, 92.412
 28500, 80.677
 28560, 92.606
 28620, 75.818
 28680, 95.466
 28740, 100.033
 28800, 62.701
 28860, 97.421
 28920, 55.192
 28980, 85.043
 29040, 112.044
 29100, 103.864
 29160, 117.293
 29220, 93.222
 29280, 110.360
 29340, 134.991
 29400, 112.394
 29460, 79.057
 29520, 110.480
 29580, 106.432
 29640, 88.833
 29700, 81.520
 29760, 70.762
 29820, 49.194
 29880, 40.062
 29940, 40.949
 30000, 38.001
 30060, 29.572
 30120, 14.274
 30180, 18.901
 30240, 32.082
 30300, -9999.000
 30360, 15.785
 30420,  9.307
 30480,  5.659
 30540,  5.083
 30600,  4.719
 30660,  4.266
 30720, 29.807
 30780, 16.499
 30840, 30.757
 30900, 35.092
 30960, 80.900
 31020, 139.281
 31080, 146.243
 31140, 128.420
 31200, 175.027
 31260, 157.041
 31320, 146.588
 31380, 146.814
 31440, 144.059
 31500, 120.797
 31560, 162.547
 31620, 171.165
 31680, 179.663
 31740, 151.986
 31800, 202.124
 31860, 125.224
 31920, 96.649
 31980, 167.182
 32040, 138.805
 32100, 143.937
 32160, -9999.000
 32220, 193.827
 32280, 186.111
 32340, 149.138
 32400, 147.337
 32460, 103.885
 32520, 59.784
 32580, 64.398
 32640, 39.946
 32700, 45.049
 32760, 89.282
 32820, 142.476
 32880, 98.820
 32940, 128.656
 33000, 143.121
 33060, 67.639
 33120, 66.054
 33180, 57.573
 33240, 89.383
 33300, 46.327
 33360, 22.122
 33420, 10.805
 33480, 12.720
 33540, 13.340
 33600, 79.265
 33660, 32.304
 33720, 41.346
 33780, 36.271
 33840, 36.554
 33900, 36.002
 33960, 25.213
 34020, -9999.000
 34080, 22.853
 34140, 16.575
 34200, 22.005
 34260, 21.869
 34320, 18.822
 34380, 24.710
 34440, 32.756
 34500, 32.421
 34560, 44.790
 34620, 117.936
 34680, 117.412
 34740, 95.772
 34800, 71.224
 34860, 30.156
 34920, 54.601
 34980, 58.731
 35040, 41.078
 35100, 26.019
 35160, 19.462
 35220, 15.835
 35280, 11.492
 35340,  9.200
 35400,  7.782
 35460,  6.795
 35520,  5.758
 35580,  5.160
 35640,  5.896
 35700,  4.590
 35760,  5.526
 35820,  6.228
 35880,  4.040
 35940,  3.738
 36000,  3.682
 36060,  3.101
 36120,  3.214
 36180,  3.194
 36240,  3.118
 36300,  3.018
 36360,  2.786
 36420,  2.870
 36480,  6.285
 36540, 37.178
 36600, 45.320
 36660, 64.863
 36720, 86.132
 36780, 70.377
 36840, 175.791
 36900, 304.872
 36960, 269.326
 37020, 272.854
 37080, 289.420
 37140, 238.359
 37200, 207.240
 37260, 195.120
 37320, 192.413
 37380, 236.940
 37440, 197.072
 37500, 142.846
 37560, 228.812
 37620, 192.459
 37680, 245.472
 37740, 164.182
 37800, 161.161
 37860, 143.341
 37920, 146.496
 37980, 141.043
 38040, 145.343
 38100, 122.547
 38160, 125.958
 38220, 122.938
 38280, 104.952
 38340, 98.274
 38400, 87.951
 38460, 82.538
 38520, 111.865
 38580, 86.794
 38640, 65.042
 38700, 70.442
 38760, 83.211
 38820, 75.649
 38880, 44.713
 38940, 65.373
 39000, 62.141
 39060, 117.425
 39120, 123.122
 39180, 86.409
 39240, 106.412
 39300, 99.453
 39360, 93.598
 39420, 79.921
 39480, 71.672
 39540, 70.121
 39600, 113.615
 39660, 85.773
 39720, 47.370
 39780, 60.158
 39840, 48.964
 39900, 63.755
 39960, 53.037
 40020, 43.290
 40080, 56.228
 40140, 44.566
 40200, 85.565
 40260, 107.475
 40320, 31.621
 40380, 73.043
 40440, 45.281
 40500, 38.129
 40560, 74.746
 40620, 66.396
 40680, 50.774
 40740, 40.740
 40800, 56.471
 40860, 50.086
 40920, 19.711
 40980, 31.039
 41040, 34.353
 41100, 26.398
 41160, 14.300
 41220, 23.385
 41280, 23.808
 41340, 30.720
 41400, -9999.000
 41460, 24.528
 41520, 24.696
 41580, 23.622
 41640, 58.601
 41700, 33.933
 41760, 34.298
 41820, 44.216
 41880, 47.408
 41940, 42.352
 42000, 28.041
 42060, 35.637
 42120, 36.742
 42180, 31.797
 42240, 37.712
 42300, 26.863
 42360, 25.496
 42420, 20.287
 42480, 54.920
 42540, 22.338
 42600, 24.428
 42660, 34.433
 42720, 37.058
 42780, 35.425
 42840, 26.865
 42900, 10.187
 42960, 14.790
 43020, 12.829
 43080, 11.690
 43140, 12.234
 43200,  8.814
 43260, -9999.000
 43320,  8.543
 43380, 19.094
 43440, 13.397
 43500, 29.807
 43560, 35.490
 43620, 33.500
 43680, 19.745
 43740, 20.605
 43800, 23.388
 43860, 23.260
 43920, 23.088
 43980, 27.983
 44040, 17.048
 44100, 11.694
 44160, 17.141
 44220, 17.908
 44280, 17.786
 44340,  7.573
 44400, 13.067
 44460, 19.734
 44520, 16.976
 44580, 15.336
 44640, 15.526
 44700, 15.810
 44760, 14.101
 44820, 15.813
 44880, 12.935
 44940,  9.531
 45000,  6.755
 45060,  8.743
 45120, -9999.000
 45180,  7.747
 45240,  7.657
 45300,  8.656
 45360,  9.215
 45420,  6.912
 45480,  3.599
 45540,  3.807
 45600,  4.514
 45660,  4.570
 45720,  4.791
 45780,  5.093
 45840,  7.096
 45900,  7.985
 45960,  5.811
 46020,  4.970
 46080,  4.216
 46140,  4.371
 46200,  4.568
 46260,  5.784
 46320,  6.153
 46380,  5.102
 46440,  4.819
 46500,  5.884
 46560,  5.024
 46620,  5.343
 46680,  5.285
 46740,  4.376
 46800, -9999.000
 46860, -9999.000
 46920, -9999.000
 46980, -9999.000
 47040, -9999.000
 47100, -9999.000
 47160, -9999.000
 47220, -9999.000
 47280, -9999.000
 47340, -9999.000
 47400, -9999.000
 47460, -9999.000
 47520, -9999.000
 47580, -9999.000
 47640, -9999.000
 47700, -9999.000
 47760, -9999.000
 47820, -9999.000
 47880, -9999.000
 47940, -9999.000
 48000, -9999.000
 48060, -9999.000
 48120, -9999.000
 48180, -9999.000
 48240, -9999.000
 48300, -9999.000
 48360, -9999.000
 48420, -9999.000
 48480, -9999.000
 48540, -9999.000
 48600, -9999.000
 48660, -9999.000
 48720, -9999.000
 48780, -9999.000
 48840, -9999.000
 48900, -9999.000
 48960, -9999.000
 49020, -9999.000
 49080, -9999.000
 49140, -9999.000
 49200, -9999.000
 49260, -9999.000
 49320, -9999.000
 49380, -9999.000
 49440, -9999.000
 49500, -9999.000
 49560, -9999.000
 49620, -9999.000
 49680, -9999.000
 49740, -9999.000
 49800, -9999.000
 49860, -9999.000
 49920, -9999.000
 49980, -9999.000
 50040, -9999.000
 50100, -9999.000
 50160, -9999.000
 50220, -9999.000
 50280, -9999.000
 50340, -9999.000
 50400, -9999.000
 50460, -9999.000
 50520, -9999.000
 50580, -9999.000
 50640, -9999.000
 50700, -9999.000
 50760, -9999.000
 50820, -9999.000
 50880, -9999.000
 50940, -9999.000
 51000, -9999.000
 51060, -9999.000
 51120, -9999.000
 51180, -9999.000
 51240, -9999.000
 51300, -9999.000
 51360, -9999.000
 51420, -9999.000
 51480, -9999.000
 51540, -9999.000
 51600, -9999.000
 51660, -9999.000
 51720, -9999.000
 51780, -9999.000
 51840, -9999.000
 51900, -9999.000
 51960, -9999.000
 52020, -9999.000
 52080, -9999.000
 52140, -9999.000
 52200, -9999.000
 52260, -9999.000
 52320, -9999.000
 52380, -9999.000
 52440, -9999.000
 52500, -9999.000
 52560, -9999.000
 52620, -9999.000
 52680, -9999.000
 52740, -9999.000
 52800, -9999.000
 52860, -9999.000
 52920, -9999.000
 52980, -9999.000
 53040, -9999.000
 53100, -9999.000
 53160, -9999.000
 53220, -9999.000
 53280, -9999.000
 53340, -9999.000
 53400, -9999.000
 53460, -9999.000
 53520, -9999.000
 53580, -9999.000
 53640, -9999.000
 53700, -9999.000
 53760, -9999.000
 53820, -9999.000
 53880, -9999.000
 53940, -9999.000
 54000, -9999.000
 54060, -9999.000
 54120, -9999.000
 54180, -9999.000
 54240, -9999.000
 54300, -9999.000
 54360, -9999.000
 54420, -9999.000
 54480, -9999.000
 54540, -9999.000
 54600, -9999.000
 54660, -9999.000
 54720, -9999.000
 54780, -9999.000
 54840, -9999.000
 54900, -9999.000
 54960, -9999.000
 55020, -9999.000
 55080, -9999.000
 55140, -9999.000
 55200, -9999.000
 55260, -9999.000
 55320, -9999.000
 55380, -9999.000
 55440, -9999.000
 55500, -9999.000
 55560, -9999.000
 55620, -9999.000
 55680, -9999.000
 55740, -9999.000
 55800, -9999.000
 55860, -9999.000
 55920, -9999.000
 55980, -9999.000
 56040, -9999.000
 56100, -9999.000
 56160, -9999.000
 56220, -9999.000
 56280, -9999.000
 56340, -9999.000
 56400, -9999.000
 56460, -9999.000
 56520, -9999.000
 56580, -9999.000
 56640, -9999.000
 56700, -9999.000
 56760, -9999.000
 56820, -9999.000
 56880, -9999.000
 56940, -9999.000
 57000, -9999.000
 57060, -9999.000
 57120, -9999.000
 57180, -9999.000
 57240, -9999.000
 57300, -9999.000
 57360, -9999.000
 57420, -9999.000
 57480, -9999.000
 57540, -9999.000
 57600, -9999.000
 57660, -9999.000
 57720, -9999.000
 57780, -9999.000
 57840, -9999.000
 57900, -9999.000
 57960, -9999.000
 58020, -9999.000
 58080, -9999.000
 58140, -9999.000
 58200, -9999.000
 58260, -9999.000
 58320, -9999.000
 58380, -9999.000
 58440, -9999.000
 58500, -9999.000
 58560, -9999.000
 58620, -9999.000
 58680, -9999.000
 58740, -9999.000
 58800, -9999.000
 58860, -9999.000
 58920, -9999.000
 58980, -9999.000
 59040, -9999.000
 59100, -9999.000
 59160, -9999.000
 59220, -9999.000
 59280, -9999.000
 59340, -9999.000
 59400, -9999.000
 59460, -9999.000
 59520, -9999.000
 59580, -9999.000
 59640, -9999.000
 59700, -9999.000
 59760, -9999.000
 59820, -9999.000
 59880, -9999.000
 59940, -9999.000
 60000, -9999.000
 60060, -9999.000
 60120, -9999.000
 60180, -9999.000
 60240, -9999.000
 60300, -9999.000
 60360, -9999.000
 60420, -9999.000
 60480, -9999.000
 60540, -9999.000
 60600, -9999.000
 60660, -9999.000
 60720, -9999.000
 60780, -9999.000
 60840, -9999.000
 60900, -9999.000
 60960, -9999.000
 61020, -9999.000
 61080, -9999.000
 61140, -9999.000
 61200, -9999.000
 61260, -9999.000
 61320, -9999.000
 61380, -9999.000
 61440, -9999.000
 61500, -9999.000
 61560, -9999.000
 61620, -9999.000
 61680, -9999.000
 61740, -9999.000
 61800, -9999.000
 61860, -9999.000
 61920, -9999.000
 61980, -9999.000
 62040, -9999.000
 62100, -9999.000
 62160, -9999.000
 62220, -9999.000
 62280, -9999.000
 62340, -9999.000
 62400, -9999.000
 62460, -9999.000
 62520, -9999.000
 62580, -9999.000
 62640, -9999.000
 62700, -9999.000
 62760, -9999.000
 62820, -9999.000
 62880, -9999.000
 62940, -9999.000
 63000, -9999.000
 63060, -9999.000
 63120, -9999.000
 63180, -9999.000
 63240, -9999.000
 63300, -9999.000
 63360, -9999.000
 63420, -9999.000
 63480, -9999.000
 63540, -9999.000
 63600, -9999.000
 63660, -9999.000
 63720, -9999.000
 63780, -9999.000
 63840, -9999.000
 63900, -9999.000
 63960, -9999.000
 64020, -9999.000
 64080, -9999.000
 64140, -9999.000
 64200, -9999.000
 64260, -9999.000
 64320, -9999.000
 64380, -9999.000
 64440, -9999.000
 64500, -9999.000
 64560, -9999.000
 64620, -9999.000
 64680, -9999.000
 64740, -9999.000
 64800, -9999.000
 64860, -9999.000
 64920, -9999.000
 64980, -9999.000
 65040, -9999.000
 65100, -9999.000
 65160, -9999.000
 65220, -9999.000
 65280, -9999.000
 65340, -9999.000
 65400, -9999.000
 65460, -9999.000
 65520, -9999.000
 65580, -9999.000
 65640, -9999.000
 65700, -9999.000
 65760, -9999.000
 65820, -9999.000
 65880, -9999.000
 65940, -9999.000
 66000, -9999.000
 66060, -9999.000
 66120, -9999.000
 66180, -9999.000
 66240, -9999.000
 66300, -9999.000
 66360, -9999.000
 66420, -9999.000
 66480, -9999.000
 66540, -9999.000
 66600, -9999.000
 66660, -9999.000
 66720, -9999.000
 66780, -9999.000
 66840, -9999.000
 66900, -9999.000
 66960, -9999.000
 67020, -9999.000
 67080, -9999.000
 67140, -9999.000
 67200, -9999.000
 67260, -9999.000
 67320, -9999.000
 67380, -9999.000
 67440, -9999.000
 67500, -9999.000
 67560, -9999.000
 67620, -9999.000
 67680, -9999.000
 67740, -9999.000
 67800, -9999.000
 67860, -9999.000
 67920, -9999.000
 67980, -9999.000
 68040, -9999.000
 68100, -9999.000
 68160, -9999.000
 68220, -9999.000
 68280, -9999.000
 68340, -9999.000
 68400, -9999.000
 68460, -9999.000
 68520, -9999.000
 68580, -9999.000
 68640, -9999.000
 68700, -9999.000
 68760, -9999.000
 68820, -9999.000
 68880, -9999.000
 68940, -9999.000
 69000, -9999.000
 69060, -9999.000
 69120, -9999.000
 69180, -9999.000
 69240, -9999.000
 69300, -9999.000
 69360, -9999.000
 69420, -9999.000
 69480, -9999.000
 69540, -9999.000
 69600, -9999.000
 69660, -9999.000
 69720, -9999.000
 69780, -9999.000
 69840, -9999.000
 69900, -9999.000
 69960, -9999.000
 70020, -9999.000
 70080, -9999.000
 70140, -9999.000
 70200, -9999.000
 70260, -9999.000
 70320, -9999.000
 70380, -9999.000
 70440, -9999.000
 70500, -9999.000
 70560, -9999.000
 70620, -9999.000
 70680, -9999.000
 70740, -9999.000
 70800, -9999.000
 70860, -9999.000
 70920, -9999.000
 70980, -9999.000
 71040, -9999.000
 71100, -9999.000
 71160, -9999.000
 71220, -9999.000
 71280, -9999.000
 71340, -9999.000
 71400, -9999.000
 71460, -9999.000
 71520, -9999.000
 71580, -9999.000
 71640, -9999.000
 71700, -9999.000
 71760, -9999.000
 71820, -9999.000
 71880, -9999.000
 71940, -9999.000
 72000, -9999.000
 72060, -9999.000
 72120, -9999.000
 72180, -9999.000
 72240, -9999.000
 72300, -9999.000
 72360, -9999.000
 72420, -9999.000
 72480, -9999.000
 72540, -9999.000
 72600, -9999.000
 72660, -9999.000
 72720, -9999.000
 72780, -9999.000
 72840, -9999.000
 72900, -9999.000
 72960, -9999.000
 73020, -9999.000
 73080, -9999.000
 73140, -9999.000
 73200, -9999.000
 73260, -9999.000
 73320, -9999.000
 73380, -9999.000
 73440, -9999.000
 73500, -9999.000
 73560, -9999.000
 73620, -9999.000
 73680, -9999.000
 73740, -9999.000
 73800, -9999.000
 73860, -9999.000
 73920, -9999.000
 73980, -9999.000
 74040, -9999.000
 74100, -9999.000
 74160, -9999.000
 74220, -9999.000
 74280, -9999.000
 74340, -9999.000
 74400, -9999.000
 74460, -9999.000
 74520, -9999.000
 74580, -9999.000
 74640, -9999.000
 74700, -9999.000
 74760, -9999.000
 74820, -9999.000
 74880, -9999.000
 74940, -9999.000
 75000, -9999.000
 75060, -9999.000
 75120, -9999.000
 75180, -9999.000
 75240, -9999.000
 75300, -9999.000
 75360, -9999.000
 75420, -9999.000
 75480, -9999.000
 75540, -9999.000
 75600, -9999.000
 75660, -9999.000
 75720, -9999.000
 75780, -9999.000
 75840, -9999.000
 75900, -9999.000
 75960, -9999.000
 76020, -9999.000
 76080, -9999.000
 76140, -9999.000
 76200, -9999.000
 76260, -9999.000
 76320, -9999.000
 76380, -9999.000
 76440, -9999.000
 76500, -9999.000
 76560, -9999.000
 76620, -9999.000
 76680, -9999.000
 76740, -9999.000
 76800, -9999.000
 76860, -9999.000
 76920, -9999.000
 76980, -9999.000
 77040, -9999.000
 77100, -9999.000
 77160, -9999.000
 77220, -9999.000
 77280, -9999.000
 77340, -9999.000
 77400, -9999.000
 77460, -9999.000
 77520, -9999.000
 77580, -9999.000
 77640, -9999.000
 77700, -9999.000
 77760, -9999.000
 77820, -9999.000
 77880, -9999.000
 77940, -9999.000
 78000, -9999.000
 78060, -9999.000
 78120, -9999.000
 78180, -9999.000
 78240, -9999.000
 78300, -9999.000
 78360, -9999.000
 78420, -9999.000
 78480, -9999.000
 78540, -9999.000
 78600, -9999.000
 78660, -9999.000
 78720, -9999.000
 78780, -9999.000
 78840, -9999.000
 78900, -9999.000
 78960, -9999.000
 79020, -9999.000
 79080, -9999.000
 79140, -9999.000
 79200, -9999.000
 79260, -9999.000
 79320, -9999.000
 79380, -9999.000
 79440, -9999.000
 79500, -9999.000
 79560, -9999.000
 79620, -9999.000
 79680, -9999.000
 79740, -9999.000
 79800, -9999.000
 79860, -9999.000
 79920, -9999.000
 79980, -9999.000
 80040, -9999.000
 80100, -9999.000
 80160, -9999.000
 80220, -9999.000
 80280, -9999.000
 80340, -9999.000
 80400, -9999.000
 80460, -9999.000
 80520, -9999.000
 80580, -9999.000
 80640, -9999.000
 80700, -9999.000
 80760, -9999.000
 80820, -9999.000
 80880, -9999.000
 80940, -9999.000
 81000, -9999.000
 81060, -9999.000
 81120, -9999.000
 81180, -9999.000
 81240, -9999.000
 81300, -9999.000
 81360, -9999.000
 81420, -9999.000
 81480, -9999.000
 81540, -9999.000
 81600, -9999.000
 81660, -9999.000
 81720, -9999.000
 81780, -9999.000
 81840, -9999.000
 81900, -9999.000
 81960, -9999.000
 82020, -9999.000
 82080, -9999.000
 82140, -9999.000
 82200, -9999.000
 82260, -9999.000
 82320, -9999.000
 82380, -9999.000
 82440, -9999.000
 82500, -9999.000
 82560, -9999.000
 82620, -9999.000
 82680, -9999.000
 82740, -9999.000
 82800, -9999.000
 82860, -9999.000
 82920, -9999.000
 82980, -9999.000
 83040, -9999.000
 83100, -9999.000
 83160, -9999.000
 83220, -9999.000
 83280, -9999.000
 83340, -9999.000
 83400, -9999.000
 83460, -9999.000
 83520, -9999.000
 83580, -9999.000
 83640, -9999.000
 83700, -9999.000
 83760, -9999.000
 83820, -9999.000
 83880, -9999.000
 83940, -9999.000
 84000, -9999.000
 84060, -9999.000
 84120, -9999.000
 84180, -9999.000
 84240, -9999.000
 84300, -9999.000
 84360, -9999.000
 84420, -9999.000
 84480, -9999.000
 84540, -9999.000
 84600, -9999.000
 84660, -9999.000
 84720, -9999.000
 84780, -9999.000
 84840, -9999.000
 84900, -9999.000
 84960, -9999.000
 85020, -9999.000
 85080, -9999.000
 85140, -9999.000
 85200, -9999.000
 85260, -9999.000
 85320, -9999.000
 85380, -9999.000
 85440, -9999.000
 85500, -9999.000
 85560, -9999.000
 85620, -9999.000
 85680, -9999.000
 85740, -9999.000
 85800, -9999.000
 85860, -9999.000
 85920, -9999.000
 85980, -9999.000
 86040, -9999.000
 86100, -9999.000
 86160, -9999.000
 86220, -9999.000
 86280, -9999.000
 86340, -9999.000
