34, 1001
Michael A Robinson, Chris Jernigan, Subi Thakali
NOAA ESRL Chemical Sciences Laboratory and CIRES, U. of Colorado
NOAA Iodide CIMS Instrument
USOS
1, 1
2024, 07, 16, 2024, 07, 17
0
starttime_UTC, seconds_past_midnight, seconds_of_day_since_00:00:00_UTC
1
1
-9999
HNO3_NOAACIMS, pptv, Gas_HNO3_InSitu_S_AVMR
1
N/A
18
PI_CONTACT_INFO: 325 Broadway, R/CSD 7, Boulder, Colorado 80305; michael.a.robinson@noaa.gov; chris.jernigan@noaa.gov;
PLATFORM: NOAA CSL Mobile Lab
LOCATION: SLC, Utah
ASSOCIATED_DATA: 1Hz data also available on request.
INSTRUMENT_INFO: NOAA I- ToF CIMS
DATA_INFO: Units: pptv
UNCERTAINTY: tbd
ULOD_FLAG: -7777
ULOD_VALUE: N/A
LLOD_FLAG: -8888
LLOD_VALUE: N/A
DM_CONTACT_INFO: Nathan Howard; nathan.h.howard@noaa.gov
PROJECT_INFO: USOS, summer 2024. https://csl.noaa.gov/groups/csl7/measurements/2024usos/
STIPULATIONS_ON_USE: only the USOS science team is allowed to use this data
OTHER_COMMENTS: Field data; Data are averaged to 1 minute intervals. Stationary data collected from a 10 ft tower on top of the mobile lab
REVISION: RA
RA: Preliminary Data; For in-field use only
starttime_UTC, HNO3_NOAACIMS
0,508.860
60,511.954
120,527.184
180,502.445
240,494.760
300,518.924
360,527.159
420,519.635
480,467.687
540,469.527
600,467.196
660,491.770
720,468.482
780,467.226
840,460.675
900,448.528
960,458.923
1020,485.297
1080,477.951
1140,436.080
1200,477.729
1260,464.790
1320,481.894
1380,497.796
1440,480.696
1500,487.590
1560,480.240
1620,462.713
1680,463.045
1740,455.850
1800,475.075
1860,494.884
1920,500.097
1980,489.398
2040,501.243
2100,545.188
2160,531.821
2220,510.374
2280,534.810
2340,533.522
2400,515.734
2460,489.725
2520,489.327
2580,466.184
2640,480.621
2700,469.309
2760,507.248
2820,546.789
2880,547.297
2940,499.601
3000,485.251
3060,465.202
3120,485.973
3180,471.370
3240,470.964
3300,464.942
3360,496.049
3420,531.311
3480,535.832
3540,534.376
3600,435.257
3660,390.186
3720,355.351
3780,375.913
3840,341.417
3900,325.330
3960,300.260
4020,283.671
4080,305.750
4140,305.068
4200,300.775
4260,293.904
4320,304.567
4380,324.526
4440,323.177
4500,312.028
4560,319.245
4620,329.995
4680,328.166
4740,365.657
4800,369.879
4860,410.663
4920,426.468
4980,392.564
5040,394.950
5100,376.739
5160,392.355
5220,415.756
5280,405.138
5340,406.158
5400,407.360
5460,404.824
5520,456.519
5580,435.722
5640,421.789
5700,353.027
5760,356.185
5820,362.897
5880,357.917
5940,361.631
6000,383.335
6060,408.179
6120,392.685
6180,376.919
6240,390.395
6300,394.111
6360,401.408
6420,398.570
6480,418.857
6540,424.789
6600,404.132
6660,396.955
6720,403.586
6780,411.782
6840,416.824
6900,401.180
6960,395.365
7020,378.838
7080,381.497
7140,370.802
7200,405.927
7260,407.914
7320,429.303
7380,436.117
7440,402.594
7500,364.328
7560,367.935
7620,398.690
7680,398.884
7740,394.479
7800,425.514
7860,408.259
7920,397.776
7980,436.571
8040,389.940
8100,341.574
8160,338.850
8220,348.483
8280,345.456
8340,361.841
8400,373.763
8460,378.923
8520,395.681
8580,397.277
8640,439.757
8700,443.391
8760,394.889
8820,386.349
8880,409.308
8940,408.959
9000,408.596
9060,403.195
9120,391.352
9180,381.257
9240,363.609
9300,362.542
9360,352.251
9420,347.413
9480,352.084
9540,363.907
9600,339.704
9660,336.836
9720,352.498
9780,380.799
9840,407.830
9900,389.645
9960,387.300
10020,369.783
10080,348.308
10140,355.170
10200,366.719
10260,395.746
10320,385.207
10380,368.094
10440,348.640
10500,336.111
10560,317.071
10620,312.165
10680,293.498
10740,282.688
10800,270.572
10860,266.565
10920,257.020
10980,250.437
11040,255.093
11100,250.723
11160,249.855
11220,250.747
11280,248.507
11340,250.795
11400,254.701
11460,247.565
11520,238.887
11580,240.104
11640,233.568
11700,229.457
11760,223.724
11820,223.265
11880,221.628
11940,212.968
12000,204.183
12060,204.502
12120,207.472
12180,206.857
12240,208.989
12300,211.098
12360,208.822
12420,205.118
12480,207.072
12540,205.403
12600,205.657
12660,206.198
12720,202.697
12780,203.377
12840,207.392
12900,204.423
12960,201.476
13020,189.344
13080,-9999.000
13140,221.381
13200,228.141
13260,232.724
13320,237.407
13380,232.339
13440,224.277
13500,196.181
13560,178.892
13620,173.249
13680,167.173
13740,191.275
13800,213.321
13860,223.543
13920,225.451
13980,211.358
14040,211.774
14100,199.533
14160,193.528
14220,188.443
14280,184.377
14340,191.853
14400,208.715
14460,255.319
14520,268.299
14580,262.057
14640,251.100
14700,259.911
14760,268.566
14820,279.723
14880,279.850
14940,272.729
15000,272.507
15060,266.168
15120,231.270
15180,226.089
15240,216.015
15300,217.111
15360,222.064
15420,225.525
15480,222.910
15540,214.421
15600,182.498
15660,165.375
15720,179.005
15780,194.160
15840,204.974
15900,197.431
15960,221.672
16020,254.521
16080,258.698
16140,269.780
16200,260.677
16260,256.930
16320,257.916
16380,251.962
16440,249.560
16500,248.491
16560,246.530
16620,232.907
16680,221.839
16740,217.156
16800,219.910
16860,213.354
16920,213.798
16980,215.821
17040,208.520
17100,206.324
17160,196.528
17220,194.349
17280,185.265
17340,189.394
17400,193.318
17460,181.996
17520,194.810
17580,197.518
17640,192.362
17700,192.638
17760,191.491
17820,196.223
17880,194.485
17940,194.306
18000,185.534
18060,194.323
18120,199.579
18180,202.662
18240,202.783
18300,188.965
18360,182.954
18420,176.420
18480,173.541
18540,180.958
18600,191.704
18660,188.267
18720,181.505
18780,179.616
18840,171.819
18900,173.287
18960,175.812
19020,171.418
19080,167.734
19140,166.751
19200,164.858
19260,175.143
19320,186.821
19380,179.733
19440,176.789
19500,174.049
19560,174.818
19620,168.009
19680,173.773
19740,176.134
19800,183.995
19860,180.442
19920,169.983
19980,148.651
20040,142.153
20100,146.638
20160,150.462
20220,144.764
20280,147.398
20340,145.937
20400,142.372
20460,146.912
20520,160.852
20580,163.363
20640,172.002
20700,189.125
20760,213.898
20820,228.481
20880,247.413
20940,242.949
21000,239.077
21060,228.954
21120,223.156
21180,220.898
21240,221.279
21300,226.234
21360,250.298
21420,254.327
21480,248.881
21540,263.253
21600,270.786
21660,275.251
21720,281.845
21780,271.829
21840,262.754
21900,249.815
21960,247.166
22020,253.381
22080,258.056
22140,246.755
22200,-9999.000
22260,-9999.000
22320,-9999.000
22380,-9999.000
22440,202.667
22500,212.036
22560,225.014
22620,221.980
22680,222.891
22740,216.148
22800,222.114
22860,233.233
22920,235.309
22980,238.004
23040,239.657
23100,228.004
23160,210.623
23220,206.566
23280,213.577
23340,216.809
23400,218.180
23460,214.690
23520,212.525
23580,213.128
23640,215.374
23700,213.437
23760,205.727
23820,202.863
23880,188.740
23940,184.869
24000,194.631
24060,-9999.000
24120,-9999.000
24180,-9999.000
24240,-9999.000
24300,189.824
24360,196.847
24420,206.154
24480,199.898
24540,193.916
24600,184.979
24660,177.851
24720,182.440
24780,187.432
24840,182.887
24900,180.585
24960,175.195
25020,176.319
25080,180.325
25140,181.905
25200,180.346
25260,175.504
25320,170.219
25380,169.270
25440,174.919
25500,174.043
25560,173.494
25620,165.287
25680,169.922
25740,170.797
25800,173.388
25860,164.064
25920,156.217
25980,153.406
26040,170.399
26100,168.157
26160,169.803
26220,178.816
26280,187.206
26340,192.088
26400,199.197
26460,205.929
26520,200.387
26580,196.560
26640,192.672
26700,192.915
26760,202.984
26820,209.810
26880,211.269
26940,207.952
27000,203.015
27060,196.152
27120,194.478
27180,196.031
27240,193.405
27300,185.927
27360,176.906
27420,148.913
27480,147.158
27540,155.905
27600,154.299
27660,163.185
27720,156.118
27780,149.716
27840,147.464
27900,164.485
27960,152.524
28020,153.979
28080,153.706
28140,160.753
28200,172.997
28260,183.292
28320,184.723
28380,179.815
28440,181.443
28500,182.624
28560,192.412
28620,189.028
28680,186.333
28740,182.530
28800,180.842
28860,173.961
28920,178.690
28980,178.839
29040,177.881
29100,175.085
29160,172.163
29220,174.197
29280,178.952
29340,176.045
29400,170.995
29460,168.234
29520,163.536
29580,162.673
29640,165.284
29700,165.261
29760,163.721
29820,164.905
29880,163.883
29940,167.887
30000,170.032
30060,168.845
30120,161.376
30180,163.419
30240,162.751
30300,160.378
30360,160.152
30420,163.968
30480,167.049
30540,161.862
30600,159.554
30660,161.997
30720,168.189
30780,171.107
30840,173.010
30900,160.413
30960,158.788
31020,166.689
31080,169.075
31140,167.096
31200,166.741
31260,164.241
31320,162.024
31380,164.595
31440,175.135
31500,172.610
31560,-9999.000
31620,170.318
31680,163.205
31740,170.865
31800,177.481
31860,182.051
31920,173.450
31980,169.058
32040,163.484
32100,162.752
32160,171.779
32220,180.339
32280,178.625
32340,172.299
32400,169.538
32460,168.734
32520,177.083
32580,183.573
32640,183.062
32700,176.852
32760,170.750
32820,164.654
32880,163.380
32940,177.995
33000,177.426
33060,174.611
33120,169.984
33180,165.240
33240,169.808
33300,168.614
33360,168.680
33420,173.616
33480,170.875
33540,172.528
33600,177.676
33660,177.644
33720,174.104
33780,170.978
33840,162.782
33900,168.456
33960,171.068
34020,168.579
34080,163.441
34140,156.015
34200,148.444
34260,143.050
34320,142.424
34380,143.135
34440,142.370
34500,137.879
34560,136.357
34620,137.031
34680,151.827
34740,154.115
34800,159.221
34860,154.523
34920,152.174
34980,158.400
35040,165.218
35100,166.056
35160,146.940
35220,135.728
35280,149.554
35340,133.632
35400,123.412
35460,115.723
35520,120.086
35580,137.032
35640,151.877
35700,162.057
35760,163.210
35820,170.228
35880,167.728
35940,153.583
36000,154.012
36060,146.151
36120,142.111
36180,146.830
36240,161.230
36300,160.184
36360,157.286
36420,148.986
36480,144.262
36540,154.282
36600,160.573
36660,158.743
36720,154.389
36780,152.782
36840,164.342
36900,171.536
36960,168.117
37020,165.539
37080,165.876
37140,174.171
37200,173.484
37260,175.776
37320,169.239
37380,158.523
37440,168.277
37500,177.472
37560,178.751
37620,160.758
37680,145.228
37740,145.788
37800,147.960
37860,146.549
37920,141.218
37980,140.738
38040,140.404
38100,144.051
38160,141.661
38220,135.521
38280,130.574
38340,121.326
38400,127.378
38460,134.083
38520,140.714
38580,130.301
38640,109.120
38700,117.417
38760,125.560
38820,129.526
38880,135.577
38940,-9999.000
39000,151.997
39060,143.791
39120,133.528
39180,127.941
39240,132.357
39300,139.640
39360,135.273
39420,126.613
39480,127.274
39540,129.118
39600,133.031
39660,136.483
39720,133.863
39780,133.027
39840,136.721
39900,143.105
39960,148.056
40020,147.118
40080,142.816
40140,144.183
40200,146.231
40260,145.340
40320,140.438
40380,138.619
40440,145.752
40500,148.358
40560,142.820
40620,139.109
40680,137.886
40740,137.995
40800,147.314
40860,134.521
40920,128.522
40980,124.197
41040,123.102
41100,116.610
41160,112.811
41220,111.550
41280,114.940
41340,121.146
41400,119.496
41460,118.703
41520,118.730
41580,120.396
41640,118.553
41700,118.555
41760,113.449
41820,106.283
41880,106.701
41940,115.297
42000,111.502
42060,107.103
42120,106.675
42180,111.012
42240,108.657
42300,102.057
42360,97.356
42420,102.356
42480,92.028
42540,94.074
42600,100.058
42660,132.738
42720,123.747
42780,122.133
42840,119.073
42900,117.808
42960,120.573
43020,113.517
43080,112.484
43140,111.252
43200,115.106
43260,105.285
43320,100.959
43380,97.168
43440,98.228
43500,107.205
43560,114.211
43620,119.438
43680,123.477
43740,132.573
43800,135.228
43860,136.239
43920,133.168
43980,131.969
44040,129.009
44100,127.387
44160,116.922
44220,101.453
44280,98.462
44340,100.888
44400,104.135
44460,107.047
44520,118.468
44580,119.102
44640,129.115
44700,123.886
44760,110.352
44820,104.865
44880,113.845
44940,112.924
45000,111.374
45060,110.085
45120,111.123
45180,111.001
45240,107.895
45300,105.336
45360,108.777
45420,110.214
45480,114.584
45540,115.704
45600,116.124
45660,113.080
45720,120.212
45780,111.499
45840,103.481
45900,98.377
45960,93.057
46020,100.090
46080,101.089
46140,97.420
46200,99.334
46260,105.500
46320,102.843
46380,113.748
46440,97.258
46500,85.917
46560,89.179
46620,91.499
46680,82.774
46740,74.924
46800,78.354
46860,167.860
46920,271.639
46980,261.679
47040,238.327
47100,239.859
47160,239.712
47220,251.169
47280,263.580
47340,248.351
47400,240.360
47460,259.736
47520,247.748
47580,245.175
47640,249.626
47700,247.467
47760,249.629
47820,243.191
47880,215.935
47940,196.913
48000,187.993
48060,186.129
48120,191.133
48180,200.134
48240,214.067
48300,209.393
48360,223.645
48420,226.418
48480,207.090
48540,197.494
48600,182.848
48660,187.871
48720,185.866
48780,194.408
48840,185.355
48900,181.599
48960,178.059
49020,188.237
49080,196.601
49140,207.871
49200,209.721
49260,203.915
49320,181.605
49380,187.523
49440,211.878
49500,213.274
49560,205.598
49620,204.918
49680,200.018
49740,180.171
49800,200.604
49860,201.701
49920,198.100
49980,207.432
50040,239.745
50100,228.352
50160,229.491
50220,248.403
50280,237.043
50340,244.815
50400,265.043
50460,268.821
50520,272.465
50580,294.001
50640,319.681
50700,323.869
50760,327.607
50820,314.099
50880,314.346
50940,328.629
51000,337.819
51060,357.434
51120,409.356
51180,419.328
51240,400.250
51300,395.968
51360,388.973
51420,392.401
51480,393.114
51540,394.432
51600,408.061
51660,424.258
51720,425.069
51780,420.658
51840,425.898
51900,447.235
51960,441.930
52020,455.268
52080,433.741
52140,426.496
52200,415.927
52260,431.775
52320,436.656
52380,437.078
52440,358.928
52500,384.247
52560,420.394
52620,458.546
52680,451.377
52740,448.878
52800,457.759
52860,452.562
52920,468.988
52980,488.381
53040,505.567
53100,511.132
53160,457.181
53220,456.001
53280,474.557
53340,490.309
53400,512.322
53460,529.719
53520,546.510
53580,534.114
53640,495.567
53700,520.249
53760,554.957
53820,580.119
53880,591.256
53940,563.469
54000,579.882
54060,601.300
54120,623.002
54180,624.167
54240,620.997
54300,618.936
54360,623.363
54420,632.679
54480,632.766
54540,637.463
54600,650.839
54660,667.508
54720,662.398
54780,670.439
54840,673.919
54900,678.242
54960,690.597
55020,684.605
55080,710.705
55140,742.329
55200,760.651
55260,780.743
55320,779.482
55380,781.212
55440,779.842
55500,762.365
55560,765.253
55620,739.647
55680,742.209
55740,751.414
55800,793.533
55860,766.545
55920,760.704
55980,703.220
56040,694.294
56100,754.354
56160,786.038
56220,817.334
56280,831.493
56340,809.572
56400,799.129
56460,790.674
56520,777.871
56580,819.548
56640,776.328
56700,728.844
56760,690.827
56820,690.976
56880,626.087
56940,677.737
57000,656.803
57060,666.068
57120,690.543
57180,701.876
57240,699.984
57300,695.206
57360,663.145
57420,625.721
57480,644.206
57540,680.072
57600,724.456
57660,681.216
57720,705.668
57780,705.972
57840,723.792
57900,710.654
57960,704.675
58020,723.654
58080,740.770
58140,805.215
58200,853.124
58260,781.897
58320,801.520
58380,842.687
58440,866.137
58500,811.498
58560,792.295
58620,796.027
58680,770.242
58740,777.593
58800,794.114
58860,798.449
58920,843.820
58980,855.200
59040,832.957
59100,892.506
59160,899.252
59220,977.077
59280,975.136
59340,938.358
59400,907.533
59460,921.416
59520,884.352
59580,807.420
59640,815.099
59700,853.217
59760,817.512
59820,739.019
59880,741.850
59940,779.857
60000,791.457
60060,828.125
60120,846.440
60180,813.155
60240,827.707
60300,856.177
60360,777.189
60420,818.111
60480,895.966
60540,726.686
60600,829.349
60660,858.164
60720,905.479
60780,995.004
60840,989.025
60900,955.267
60960,1016.393
61020,995.755
61080,1051.513
61140,1069.930
61200,1047.253
61260,1031.690
61320,1105.661
61380,1142.422
61440,1119.957
61500,1134.463
61560,1241.343
61620,1269.300
61680,1291.047
61740,1309.235
61800,1310.237
61860,1323.162
61920,1352.950
61980,1325.077
62040,1315.049
62100,1307.005
62160,1298.638
62220,1275.027
62280,1297.965
62340,1292.771
62400,1143.873
62460,1174.715
62520,1198.660
62580,1179.037
62640,1129.135
62700,1106.767
62760,1180.895
62820,1173.400
62880,1081.706
62940,1021.640
63000,1019.607
63060,1024.618
63120,1034.306
63180,1137.067
63240,1132.730
63300,1066.885
63360,1099.772
63420,1214.004
63480,1304.367
63540,1287.557
63600,1363.506
63660,1227.268
63720,1274.350
63780,1307.587
63840,1341.231
63900,1280.850
63960,1187.897
64020,1185.034
64080,1123.591
64140,1227.422
64200,1424.986
64260,1179.460
64320,1215.494
64380,1448.017
64440,1643.439
64500,1507.697
64560,1588.191
64620,1787.756
64680,1615.979
64740,1620.804
64800,1814.273
64860,1869.904
64920,1803.808
64980,1726.896
65040,1564.245
65100,1475.100
65160,1608.799
65220,1932.802
65280,2144.992
65340,1938.717
65400,1825.124
65460,1888.609
65520,1917.359
65580,1724.494
65640,1651.569
65700,1789.479
65760,2050.156
65820,2120.171
65880,2251.142
65940,2317.520
66000,2277.942
66060,2329.260
66120,1979.772
66180,2079.777
66240,1901.410
66300,1890.296
66360,1824.987
66420,1761.602
66480,1878.419
66540,1903.641
66600,1959.667
66660,2095.269
66720,2097.116
66780,2161.895
66840,2285.895
66900,2317.200
66960,2238.501
67020,2345.342
67080,2368.775
67140,2301.253
67200,2279.479
67260,2268.922
67320,2184.220
67380,1910.948
67440,1711.512
67500,1750.956
67560,1886.038
67620,1988.688
67680,2077.674
67740,2137.287
67800,2041.309
67860,2031.374
67920,-9999.000
67980,1766.659
68040,1938.580
68100,2061.153
68160,1994.174
68220,2190.410
68280,2228.851
68340,2242.614
68400,2381.526
68460,2384.900
68520,2430.325
68580,2496.480
68640,2416.438
68700,2474.461
68760,2486.665
68820,2254.611
68880,2242.819
68940,2469.805
69000,2617.249
69060,2688.816
69120,2682.215
69180,2875.805
69240,2938.868
69300,2774.260
69360,2847.866
69420,3031.098
69480,3323.314
69540,3603.347
69600,3392.615
69660,2650.768
69720,2243.604
69780,1793.262
69840,1808.565
69900,1853.137
69960,1846.146
70020,1705.504
70080,1858.510
70140,1884.720
70200,1888.282
70260,1796.198
70320,1762.223
70380,1791.802
70440,2011.394
70500,1860.421
70560,1854.233
70620,1660.711
70680,1572.992
70740,1499.718
70800,1325.773
70860,1295.751
70920,1305.005
70980,1087.466
71040,1043.995
71100,979.606
71160,992.456
71220,1086.830
71280,1043.230
71340,1019.800
71400,1098.772
71460,1088.394
71520,1053.503
71580,1179.424
71640,1004.580
71700,1056.681
71760,1000.057
71820,1041.678
71880,1056.886
71940,1027.172
72000,1048.076
72060,1030.489
72120,1103.004
72180,1142.929
72240,1129.040
72300,1092.487
72360,986.925
72420,995.695
72480,1014.752
72540,961.802
72600,965.205
72660,938.941
72720,946.434
72780,928.650
72840,841.903
72900,829.628
72960,839.974
73020,807.051
73080,818.624
73140,832.330
73200,863.987
73260,856.758
73320,848.302
73380,855.444
73440,861.208
73500,859.512
73560,867.985
73620,891.813
73680,834.863
73740,770.696
73800,767.109
73860,792.341
73920,798.280
73980,818.211
74040,807.505
74100,783.227
74160,765.904
74220,730.561
74280,748.490
74340,771.023
74400,786.123
74460,760.949
74520,766.845
74580,796.111
74640,783.306
74700,741.404
74760,790.332
74820,822.636
74880,764.261
74940,733.276
75000,724.412
75060,730.570
75120,725.655
75180,757.137
75240,764.885
75300,793.635
75360,692.844
75420,732.357
75480,700.102
75540,717.126
75600,747.440
75660,753.426
75720,752.044
75780,722.070
75840,679.259
75900,644.010
75960,616.440
76020,605.289
76080,605.753
76140,602.159
76200,612.742
76260,631.905
76320,647.738
76380,653.129
76440,677.887
76500,662.840
76560,634.298
76620,614.008
76680,591.868
76740,612.924
76800,666.721
76860,697.139
76920,695.493
76980,703.134
77040,676.624
77100,672.650
77160,609.459
77220,633.227
77280,680.068
77340,634.897
77400,620.413
77460,603.754
77520,620.707
77580,598.107
77640,-9999.000
77700,-9999.000
77760,-9999.000
77820,-9999.000
77880,-9999.000
77940,-9999.000
78000,-9999.000
78060,-9999.000
78120,-9999.000
78180,-9999.000
78240,-9999.000
78300,-9999.000
78360,-9999.000
78420,-9999.000
78480,309.205
78540,313.725
78600,315.373
78660,307.143
78720,316.355
78780,321.498
78840,317.710
78900,319.286
78960,332.570
79020,310.380
79080,317.521
79140,345.022
79200,355.947
79260,345.748
79320,342.971
79380,314.961
79440,300.124
79500,306.947
79560,308.756
79620,326.453
79680,310.685
79740,309.672
79800,318.545
79860,342.964
79920,336.773
79980,322.780
80040,320.446
80100,301.999
80160,295.144
80220,278.005
80280,310.108
80340,305.333
80400,302.096
80460,307.633
80520,348.870
80580,365.216
80640,362.719
80700,367.781
80760,352.775
80820,385.244
80880,324.940
80940,359.812
81000,399.120
81060,385.437
81120,363.999
81180,364.695
81240,397.543
81300,397.752
81360,379.052
81420,353.466
81480,341.270
81540,323.906
81600,328.124
81660,329.403
81720,340.783
81780,319.130
81840,314.323
81900,289.276
81960,291.990
82020,307.381
82080,307.248
82140,308.533
82200,303.678
82260,292.712
82320,289.751
82380,287.513
82440,281.878
82500,293.065
82560,302.908
82620,292.619
82680,278.742
82740,292.685
82800,263.210
82860,284.006
82920,278.431
82980,266.273
83040,270.233
83100,266.704
83160,270.441
83220,265.151
83280,260.352
83340,250.374
83400,264.760
83460,268.536
83520,291.503
83580,294.052
83640,281.099
83700,274.021
83760,281.977
83820,258.202
83880,252.483
83940,259.470
84000,233.647
84060,254.271
84120,291.371
84180,289.536
84240,302.587
84300,309.848
84360,343.257
84420,349.780
84480,331.340
84540,281.770
84600,316.944
84660,313.185
84720,313.116
84780,294.632
84840,292.380
84900,274.408
84960,263.606
85020,305.768
85080,300.894
85140,310.021
85200,315.132
85260,258.651
85320,270.382
85380,274.589
85440,275.359
85500,268.995
85560,269.308
85620,282.772
85680,326.819
85740,343.926
85800,346.068
85860,356.591
85920,361.136
85980,370.264
86040,398.618
86100,401.754
86160,365.820
86220,362.962
86280,359.288
86340,360.847
