33, 1001
Michael A Robinson, Chris Jernigan, Subi Thakali
NOAA ESRL Chemical Sciences Laboratory and CIRES, U. of Colorado
NOAA Iodide CIMS Instrument
USOS
1, 1
2024, 07, 26, 2024, 07, 27
1
starttime_UTC, seconds_past_midnight, seconds_of_day_since_00:00:00_UTC
1
1
-9999
HNO3_NOAACIMS, pptv, Gas_HNO3_InSitu_S_AVMR, 
0
18
PI_CONTACT_INFO: 325 Broadway, R/CSD 7, Boulder, Colorado 80305; michael.a.robinson@noaa.gov; chris.jernigan@noaa.gov;
PLATFORM: NOAA CSL Mobile Lab
LOCATION: SLC, Utah
ASSOCIATED_DATA: 1Hz data also available on request.
INSTRUMENT_INFO: NOAA I- ToF CIMS
DATA_INFO: All data in parts per trillion by volume (pptv). 1 Hz data is available upon request.
UNCERTAINTY: TBD
ULOD_FLAG: -7777
ULOD_VALUE: N/A
LLOD_FLAG: -8888
LLOD_VALUE: N/A
DM_CONTACT_INFO: Nathan Howard; nathan.h.howard@noaa.gov
PROJECT_INFO: USOS, summer 2024. https://csl.noaa.gov/groups/csl7/measurements/2024usos/
STIPULATIONS_ON_USE: Users are strongly encouraged to contact the PI for proper data usage.
OTHER_COMMENTS: 
REVISION: RA
RA: Preliminary Data; For in-field use only
starttime_UTC, HNO3_NOAACIMS
     0, 671.117
    60, 640.748
   120, 634.118
   180, -9999.000
   240, 551.916
   300, 542.036
   360, 540.804
   420, 531.328
   480, 496.240
   540, 482.307
   600, 477.595
   660, 477.862
   720, 502.102
   780, 535.407
   840, 543.860
   900, 547.601
   960, 543.888
  1020, 557.462
  1080, 558.834
  1140, 569.223
  1200, 557.151
  1260, 549.111
  1320, 553.895
  1380, 575.252
  1440, 595.612
  1500, 603.588
  1560, 598.100
  1620, 573.448
  1680, 577.593
  1740, 599.082
  1800, 623.219
  1860, 658.021
  1920, 671.678
  1980, 657.695
  2040, 609.673
  2100, 610.751
  2160, 602.581
  2220, 593.464
  2280, 588.647
  2340, 577.663
  2400, 559.800
  2460, 530.733
  2520, 508.282
  2580, 496.826
  2640, 490.450
  2700, 498.706
  2760, 502.372
  2820, 452.161
  2880, 443.125
  2940, 449.468
  3000, 435.286
  3060, 432.493
  3120, 416.338
  3180, 461.247
  3240, 526.808
  3300, 578.472
  3360, 582.778
  3420, 559.577
  3480, 549.013
  3540, 547.769
  3600, 562.885
  3660, 552.382
  3720, 537.276
  3780, 528.028
  3840, -9999.000
  3900, 482.230
  3960, 513.893
  4020, 565.341
  4080, 610.529
  4140, 627.529
  4200, 649.875
  4260, 655.872
  4320, 633.452
  4380, 620.138
  4440, 599.346
  4500, 577.908
  4560, 547.694
  4620, 534.881
  4680, 535.005
  4740, 548.051
  4800, 545.202
  4860, 535.779
  4920, 523.686
  4980, 523.086
  5040, 494.215
  5100, 485.234
  5160, 491.892
  5220, 512.329
  5280, 527.018
  5340, 532.234
  5400, 523.494
  5460, 532.894
  5520, 557.406
  5580, 584.327
  5640, 579.411
  5700, 594.750
  5760, 516.289
  5820, 502.807
  5880, 492.556
  5940, 511.110
  6000, 538.124
  6060, 544.226
  6120, 561.010
  6180, 580.909
  6240, 597.457
  6300, 616.346
  6360, 643.518
  6420, 639.426
  6480, 621.660
  6540, 630.269
  6600, 645.345
  6660, 656.205
  6720, 678.097
  6780, 698.732
  6840, 709.521
  6900, 710.371
  6960, 682.990
  7020, 619.143
  7080, 576.150
  7140, 549.707
  7200, 515.738
  7260, 499.225
  7320, 476.663
  7380, 445.530
  7440, 424.288
  7500, 407.524
  7560, -9999.000
  7620, 351.666
  7680, 333.388
  7740, 326.026
  7800, 324.925
  7860, 303.458
  7920, 276.370
  7980, 270.829
  8040, 260.674
  8100, 261.290
  8160, 274.776
  8220, 297.901
  8280, 313.027
  8340, 337.937
  8400, 351.633
  8460, 335.717
  8520, 321.958
  8580, 309.619
  8640, 314.761
  8700, 325.864
  8760, 346.066
  8820, 351.319
  8880, 347.686
  8940, 346.870
  9000, 349.889
  9060, 339.389
  9120, 336.398
  9180, 339.732
  9240, 337.907
  9300, 346.660
  9360, 357.552
  9420, -9999.000
  9480, 384.037
  9540, 389.950
  9600, 393.407
  9660, 387.625
  9720, 377.132
  9780, 359.594
  9840, 343.039
  9900, 336.706
  9960, 323.215
 10020, 316.760
 10080, 317.304
 10140, 324.224
 10200, 327.546
 10260, 326.569
 10320, 320.157
 10380, 316.911
 10440, 306.440
 10500, 292.003
 10560, 284.841
 10620, 273.609
 10680, 261.785
 10740, 260.227
 10800, 264.823
 10860, 279.719
 10920, 288.383
 10980, 292.293
 11040, 292.254
 11100, 293.511
 11160, 290.164
 11220, 291.638
 11280, -9999.000
 11340, 262.007
 11400, 257.130
 11460, 250.386
 11520, 248.666
 11580, 256.320
 11640, 266.829
 11700, 281.903
 11760, 282.983
 11820, 284.677
 11880, 273.888
 11940, 268.213
 12000, 268.654
 12060, 265.207
 12120, 257.786
 12180, 261.162
 12240, 255.784
 12300, 261.829
 12360, 271.777
 12420, 279.495
 12480, 279.959
 12540, 269.127
 12600, 254.994
 12660, 241.065
 12720, 230.924
 12780, 219.008
 12840, 216.506
 12900, 202.434
 12960, 198.996
 13020, 188.864
 13080, 184.080
 13140, -9999.000
 13200, 193.831
 13260, 203.285
 13320, 203.323
 13380, 203.264
 13440, 203.312
 13500, 203.301
 13560, 190.871
 13620, 187.816
 13680, 187.334
 13740, 181.391
 13800, 176.452
 13860, 166.610
 13920, 159.431
 13980, 157.873
 14040, 156.300
 14100, 151.949
 14160, 163.895
 14220, 171.453
 14280, 175.210
 14340, 176.538
 14400, 171.958
 14460, 171.397
 14520, 169.013
 14580, 168.686
 14640, 168.178
 14700, 159.771
 14760, 155.959
 14820, 162.568
 14880, 171.537
 14940, 177.618
 15000, -9999.000
 15060, 186.431
 15120, 187.502
 15180, 187.982
 15240, 187.261
 15300, 188.576
 15360, 182.029
 15420, 182.764
 15480, 179.485
 15540, 171.854
 15600, 173.707
 15660, 179.310
 15720, 186.328
 15780, 190.500
 15840, 188.870
 15900, 185.897
 15960, 183.528
 16020, 179.379
 16080, 174.326
 16140, 167.283
 16200, 159.909
 16260, 155.613
 16320, 151.980
 16380, 157.563
 16440, 162.958
 16500, 164.702
 16560, 167.105
 16620, 167.194
 16680, 162.471
 16740, 156.638
 16800, 151.611
 16860, 152.860
 16920, 152.178
 16980, 150.334
 17040, 153.536
 17100, 150.468
 17160, 151.589
 17220, 147.263
 17280, 145.005
 17340, 137.180
 17400, 131.689
 17460, 126.984
 17520, 121.436
 17580, 125.482
 17640, 130.001
 17700, 134.518
 17760, 135.757
 17820, 135.868
 17880, 133.923
 17940, 132.786
 18000, 128.867
 18060, 132.148
 18120, 139.266
 18180, 140.757
 18240, 144.166
 18300, 142.767
 18360, 142.947
 18420, 140.886
 18480, 136.144
 18540, 131.578
 18600, 127.515
 18660, 129.431
 18720, -9999.000
 18780, 142.124
 18840, 148.970
 18900, 156.030
 18960, 163.309
 19020, 162.166
 19080, 164.055
 19140, 173.778
 19200, 178.203
 19260, 181.778
 19320, 179.040
 19380, 172.552
 19440, 165.167
 19500, 152.580
 19560, 152.923
 19620, 147.300
 19680, 144.171
 19740, 134.911
 19800, 120.947
 19860, 113.184
 19920, 109.692
 19980, 112.113
 20040, 108.470
 20100, 106.587
 20160, 95.210
 20220, 87.396
 20280, 78.381
 20340, 72.650
 20400, 69.586
 20460, 67.559
 20520, 66.247
 20580, 75.240
 20640, 72.473
 20700, 70.903
 20760, 74.345
 20820, 76.456
 20880, 78.912
 20940, 73.280
 21000, 72.823
 21060, 73.558
 21120, 76.176
 21180, 77.328
 21240, 74.717
 21300, 71.083
 21360, 66.311
 21420, 67.654
 21480, 67.009
 21540, 67.945
 21600, 64.494
 21660, 65.775
 21720, 65.475
 21780, 63.912
 21840, 66.173
 21900, 64.614
 21960, 63.847
 22020, 61.951
 22080, 61.306
 22140, 63.676
 22200, 66.186
 22260, 68.056
 22320, 64.757
 22380, -9999.000
 22440, 89.598
 22500, 83.439
 22560, 87.429
 22620, 87.035
 22680, 87.412
 22740, 82.150
 22800, 83.449
 22860, 80.584
 22920, 75.868
 22980, 76.901
 23040, 74.690
 23100, 77.517
 23160, 76.035
 23220, 73.057
 23280, 69.964
 23340, 71.158
 23400, 77.741
 23460, 76.348
 23520, 74.932
 23580, 75.326
 23640, 78.365
 23700, 78.074
 23760, 75.930
 23820, 66.708
 23880, 62.926
 23940, 58.188
 24000, 58.589
 24060, 58.757
 24120, 56.733
 24180, 53.800
 24240, 49.393
 24300, 63.777
 24360, 63.671
 24420, 58.984
 24480, 56.585
 24540, 60.803
 24600, 64.858
 24660, 66.257
 24720, 68.658
 24780, 64.917
 24840, 62.870
 24900, 64.339
 24960, 62.097
 25020, 65.032
 25080, 66.515
 25140, 67.302
 25200, 66.199
 25260, 66.426
 25320, 65.666
 25380, 66.670
 25440, 60.141
 25500, 64.373
 25560, 66.516
 25620, 61.351
 25680, 60.122
 25740, 58.788
 25800, 61.042
 25860, 61.932
 25920, 61.126
 25980, 60.355
 26040, 57.017
 26100, -9999.000
 26160, 76.887
 26220, 72.650
 26280, 73.257
 26340, 70.330
 26400, 69.153
 26460, 68.103
 26520, 66.189
 26580, 67.503
 26640, 67.815
 26700, 64.713
 26760, 63.694
 26820, 63.352
 26880, 61.167
 26940, 64.214
 27000, 64.468
 27060, 63.147
 27120, 60.271
 27180, 57.885
 27240, 53.956
 27300, 53.319
 27360, 52.956
 27420, 58.301
 27480, 58.420
 27540, 61.941
 27600, 59.512
 27660, 57.618
 27720, 57.874
 27780, 61.209
 27840, 61.204
 27900, 56.972
 27960, -9999.000
 28020, 68.012
 28080, 67.881
 28140, 69.140
 28200, 72.028
 28260, 71.744
 28320, 71.291
 28380, 69.880
 28440, 67.781
 28500, 68.274
 28560, 68.279
 28620, 69.488
 28680, 69.062
 28740, 69.625
 28800, 68.029
 28860, 70.023
 28920, 70.103
 28980, 68.783
 29040, 64.359
 29100, 62.665
 29160, 60.713
 29220, 61.138
 29280, 63.461
 29340, 66.185
 29400, 66.071
 29460, 65.629
 29520, 64.202
 29580, 61.486
 29640, 62.287
 29700, 65.019
 29760, 66.942
 29820, -9999.000
 29880, 74.817
 29940, 68.802
 30000, 64.231
 30060, 63.296
 30120, 63.841
 30180, 63.883
 30240, 67.808
 30300, 66.807
 30360, 67.545
 30420, 67.329
 30480, 69.600
 30540, 75.723
 30600, 75.664
 30660, 78.663
 30720, 77.641
 30780, 77.704
 30840, 76.867
 30900, 81.501
 30960, 79.876
 31020, 77.737
 31080, 74.665
 31140, 76.190
 31200, 79.171
 31260, 78.769
 31320, 80.995
 31380, 84.772
 31440, 83.751
 31500, 84.454
 31560, 85.037
 31620, 84.378
 31680, -9999.000
 31740, 97.068
 31800, 92.448
 31860, 87.261
 31920, 85.725
 31980, 87.117
 32040, 87.889
 32100, 91.548
 32160, 90.123
 32220, 88.065
 32280, 86.444
 32340, 87.273
 32400, 86.662
 32460, 88.249
 32520, 89.347
 32580, 87.679
 32640, 87.387
 32700, 87.671
 32760, 86.870
 32820, 87.683
 32880, 84.076
 32940, 83.424
 33000, 79.959
 33060, 77.401
 33120, 73.859
 33180, 75.279
 33240, 76.742
 33300, 74.005
 33360, 73.345
 33420, 73.401
 33480, 71.893
 33540, -9999.000
 33600, 79.382
 33660, 79.476
 33720, 73.256
 33780, 71.637
 33840, 72.211
 33900, 73.357
 33960, 77.591
 34020, 81.540
 34080, 86.271
 34140, 88.399
 34200, 87.873
 34260, 87.381
 34320, 85.789
 34380, 92.087
 34440, 102.358
 34500, 106.950
 34560, 99.288
 34620, 95.007
 34680, 90.694
 34740, 88.830
 34800, 86.694
 34860, 80.786
 34920, 77.684
 34980, 78.811
 35040, 75.137
 35100, 73.092
 35160, 72.994
 35220, 76.226
 35280, 71.887
 35340, 72.644
 35400, 80.289
 35460, 76.682
 35520, 75.804
 35580, 76.734
 35640, 78.189
 35700, 76.711
 35760, 75.557
 35820, 74.193
 35880, 69.906
 35940, 72.291
 36000, 74.188
 36060, 71.349
 36120, 67.849
 36180, 67.588
 36240, 67.577
 36300, 67.374
 36360, 67.549
 36420, 65.259
 36480, 65.340
 36540, 65.974
 36600, 66.093
 36660, 65.993
 36720, 68.041
 36780, 66.306
 36840, 64.735
 36900, 60.526
 36960, 61.892
 37020, 65.034
 37080, 62.457
 37140, 60.231
 37200, 59.477
 37260, -9999.000
 37320, 67.986
 37380, 65.129
 37440, 67.184
 37500, 63.688
 37560, 61.668
 37620, 62.422
 37680, 63.276
 37740, 59.084
 37800, 59.267
 37860, 55.580
 37920, 53.414
 37980, 53.004
 38040, 56.386
 38100, 57.075
 38160, 53.038
 38220, 58.451
 38280, 58.855
 38340, 53.489
 38400, 53.904
 38460, 55.569
 38520, 53.447
 38580, 54.468
 38640, 52.971
 38700, 50.403
 38760, 50.289
 38820, 52.491
 38880, 52.313
 38940, 53.786
 39000, 54.713
 39060, 53.256
 39120, 65.582
 39180, 63.091
 39240, 64.351
 39300, 62.519
 39360, 61.374
 39420, 59.662
 39480, 60.283
 39540, 60.216
 39600, 61.974
 39660, 62.390
 39720, 58.740
 39780, 55.062
 39840, 57.304
 39900, 55.277
 39960, 55.684
 40020, 56.135
 40080, 52.691
 40140, 54.848
 40200, 56.945
 40260, 57.693
 40320, 55.756
 40380, 52.605
 40440, 54.988
 40500, 53.865
 40560, 56.297
 40620, 59.115
 40680, 56.686
 40740, 53.496
 40800, 59.024
 40860, 55.937
 40920, -9999.000
 40980, 66.441
 41040, 64.958
 41100, 64.917
 41160, 65.217
 41220, 68.512
 41280, 66.003
 41340, 64.362
 41400, 63.626
 41460, 62.774
 41520, 64.943
 41580, 63.104
 41640, 60.856
 41700, 61.912
 41760, 61.722
 41820, 62.207
 41880, 62.187
 41940, 60.164
 42000, 58.485
 42060, 58.486
 42120, 59.154
 42180, 59.182
 42240, 57.823
 42300, 59.764
 42360, 54.888
 42420, 53.667
 42480, 56.819
 42540, 56.644
 42600, 53.750
 42660, 51.841
 42720, 52.187
 42780, 51.801
 42840, 62.817
 42900, 62.041
 42960, 60.257
 43020, 58.856
 43080, 56.109
 43140, 55.817
 43200, 58.010
 43260, 58.009
 43320, 58.646
 43380, 55.997
 43440, 56.862
 43500, 54.398
 43560, 56.217
 43620, 56.615
 43680, 54.275
 43740, 55.081
 43800, 54.264
 43860, 54.817
 43920, 53.447
 43980, 51.272
 44040, 49.108
 44100, 49.317
 44160, 51.887
 44220, 52.010
 44280, 52.107
 44340, 51.491
 44400, 49.677
 44460, 48.958
 44520, 51.318
 44580, 52.621
 44640, -9999.000
 44700, 64.486
 44760, 60.137
 44820, 60.012
 44880, 61.555
 44940, 59.558
 45000, 58.421
 45060, 57.189
 45120, 55.169
 45180, 57.203
 45240, 57.086
 45300, 59.527
 45360, 56.165
 45420, 54.219
 45480, 50.836
 45540, 49.865
 45600, 49.452
 45660, 50.321
 45720, 49.341
 45780, 48.481
 45840, 51.699
 45900, 51.445
 45960, 50.654
 46020, 47.458
 46080, 43.910
 46140, 45.960
 46200, 48.645
 46260, 50.036
 46320, 47.979
 46380, 48.988
 46440, 49.202
 46500, -9999.000
 46560, 54.765
 46620, 46.037
 46680, 40.599
 46740, 38.274
 46800, 33.853
 46860, 56.870
 46920, 159.674
 46980, 196.098
 47040, 186.142
 47100, 173.981
 47160, 160.708
 47220, 143.519
 47280, 137.096
 47340, 136.803
 47400, 137.113
 47460, 135.492
 47520, 127.866
 47580, 124.580
 47640, 126.704
 47700, 125.476
 47760, 120.558
 47820, 115.751
 47880, 113.623
 47940, 115.334
 48000, 111.559
 48060, 106.916
 48120, 101.565
 48180, 97.464
 48240, 89.674
 48300, 88.242
 48360, -9999.000
 48420, 122.982
 48480, 117.118
 48540, 124.116
 48600, 130.622
 48660, 131.777
 48720, 130.929
 48780, 127.772
 48840, 130.986
 48900, 128.609
 48960, 127.216
 49020, 121.482
 49080, 112.050
 49140, 109.368
 49200, 106.535
 49260, 100.814
 49320, 99.292
 49380, 97.866
 49440, 96.493
 49500, 98.083
 49560, 101.441
 49620, 104.543
 49680, 105.963
 49740, 108.064
 49800, 111.878
 49860, 108.079
 49920, 107.642
 49980, 103.850
 50040, 104.715
 50100, 110.280
 50160, 112.945
 50220, -9999.000
 50280, 130.800
 50340, 131.392
 50400, 132.895
 50460, 126.441
 50520, 130.625
 50580, 127.392
 50640, 128.435
 50700, 130.788
 50760, 131.346
 50820, 136.590
 50880, 140.712
 50940, 137.813
 51000, 131.255
 51060, 130.672
 51120, 126.750
 51180, 129.364
 51240, 129.689
 51300, 132.947
 51360, 140.246
 51420, 132.417
 51480, 128.867
 51540, 132.811
 51600, 127.217
 51660, 128.125
 51720, 119.954
 51780, 123.238
 51840, 131.083
 51900, 138.742
 51960, 138.675
 52020, 141.607
 52080, -9999.000
 52140, 147.852
 52200, 152.378
 52260, 162.672
 52320, 168.194
 52380, 174.499
 52440, 188.068
 52500, 199.090
 52560, 209.919
 52620, 214.199
 52680, 199.042
 52740, 166.816
 52800, -9999.000
 52860, -9999.000
 52920, -9999.000
 52980, -9999.000
 53040, -9999.000
 53100, -9999.000
 53160, -9999.000
 53220, -9999.000
 53280, -9999.000
 53340, -9999.000
 53400, -9999.000
 53460, -9999.000
 53520, -9999.000
 53580, -9999.000
 53640, -9999.000
 53700, -9999.000
 53760, -9999.000
 53820, -9999.000
 53880, -9999.000
 53940, -9999.000
 54000, -9999.000
 54060, -9999.000
 54120, -9999.000
 54180, -9999.000
 54240, -9999.000
 54300, -9999.000
 54360, -9999.000
 54420, -9999.000
 54480, -9999.000
 54540, -9999.000
 54600, -9999.000
 54660, -9999.000
 54720, -9999.000
 54780, -9999.000
 54840, -9999.000
 54900, -9999.000
 54960, -9999.000
 55020, -9999.000
 55080, -9999.000
 55140, -9999.000
 55200, -9999.000
 55260, -9999.000
 55320, -9999.000
 55380, -9999.000
 55440, -9999.000
 55500, -9999.000
 55560, -9999.000
 55620, -9999.000
 55680, -9999.000
 55740, -9999.000
 55800, -9999.000
 55860, -9999.000
 55920, -9999.000
 55980, -9999.000
 56040, -9999.000
 56100, -9999.000
 56160, -9999.000
 56220, -9999.000
 56280, -9999.000
 56340, -9999.000
 56400, -9999.000
 56460, -9999.000
 56520, -9999.000
 56580, -9999.000
 56640, -9999.000
 56700, -9999.000
 56760, -9999.000
 56820, -9999.000
 56880, -9999.000
 56940, -9999.000
 57000, -9999.000
 57060, -9999.000
 57120, -9999.000
 57180, -9999.000
 57240, -9999.000
 57300, -9999.000
 57360, -9999.000
 57420, -9999.000
 57480, -9999.000
 57540, -9999.000
 57600, -9999.000
 57660, -9999.000
 57720, -9999.000
 57780, -9999.000
 57840, -9999.000
 57900, -9999.000
 57960, -9999.000
 58020, -9999.000
 58080, -9999.000
 58140, -9999.000
 58200, -9999.000
 58260, -9999.000
 58320, -9999.000
 58380, -9999.000
 58440, -9999.000
 58500, -9999.000
 58560, -9999.000
 58620, -9999.000
 58680, -9999.000
 58740, -9999.000
 58800, -9999.000
 58860, -9999.000
 58920, -9999.000
 58980, -9999.000
 59040, -9999.000
 59100, -9999.000
 59160, -9999.000
 59220, -9999.000
 59280, -9999.000
 59340, -9999.000
 59400, -9999.000
 59460, -9999.000
 59520, -9999.000
 59580, -9999.000
 59640, -9999.000
 59700, -9999.000
 59760, -9999.000
 59820, -9999.000
 59880, -9999.000
 59940, -9999.000
 60000, -9999.000
 60060, -9999.000
 60120, -9999.000
 60180, -9999.000
 60240, -9999.000
 60300, -9999.000
 60360, -9999.000
 60420, -9999.000
 60480, -9999.000
 60540, -9999.000
 60600, -9999.000
 60660, -9999.000
 60720, -9999.000
 60780, -9999.000
 60840, -9999.000
 60900, -9999.000
 60960, -9999.000
 61020, -9999.000
 61080, -9999.000
 61140, -9999.000
 61200, -9999.000
 61260, -9999.000
 61320, -9999.000
 61380, -9999.000
 61440, -9999.000
 61500, -9999.000
 61560, -9999.000
 61620, -9999.000
 61680, -9999.000
 61740, -9999.000
 61800, -9999.000
 61860, -9999.000
 61920, -9999.000
 61980, -9999.000
 62040, -9999.000
 62100, -9999.000
 62160, -9999.000
 62220, -9999.000
 62280, -9999.000
 62340, -9999.000
 62400, -9999.000
 62460, -9999.000
 62520, -9999.000
 62580, -9999.000
 62640, -9999.000
 62700, -9999.000
 62760, -9999.000
 62820, -9999.000
 62880, -9999.000
 62940, -9999.000
 63000, -9999.000
 63060, -9999.000
 63120, -9999.000
 63180, -9999.000
 63240, -9999.000
 63300, -9999.000
 63360, -9999.000
 63420, -9999.000
 63480, -9999.000
 63540, -9999.000
 63600, -9999.000
 63660, -9999.000
 63720, -9999.000
 63780, -9999.000
 63840, -9999.000
 63900, -9999.000
 63960, -9999.000
 64020, -9999.000
 64080, -9999.000
 64140, -9999.000
 64200, -9999.000
 64260, -9999.000
 64320, -9999.000
 64380, -9999.000
 64440, -9999.000
 64500, -9999.000
 64560, -9999.000
 64620, -9999.000
 64680, -9999.000
 64740, -9999.000
 64800, -9999.000
 64860, -9999.000
 64920, -9999.000
 64980, -9999.000
 65040, -9999.000
 65100, -9999.000
 65160, -9999.000
 65220, -9999.000
 65280, -9999.000
 65340, -9999.000
 65400, -9999.000
 65460, -9999.000
 65520, -9999.000
 65580, -9999.000
 65640, -9999.000
 65700, -9999.000
 65760, -9999.000
 65820, -9999.000
 65880, -9999.000
 65940, -9999.000
 66000, -9999.000
 66060, -9999.000
 66120, -9999.000
 66180, -9999.000
 66240, -9999.000
 66300, -9999.000
 66360, -9999.000
 66420, -9999.000
 66480, -9999.000
 66540, -9999.000
 66600, -9999.000
 66660, -9999.000
 66720, -9999.000
 66780, -9999.000
 66840, -9999.000
 66900, -9999.000
 66960, -9999.000
 67020, -9999.000
 67080, -9999.000
 67140, -9999.000
 67200, -9999.000
 67260, -9999.000
 67320, -9999.000
 67380, -9999.000
 67440, -9999.000
 67500, -9999.000
 67560, -9999.000
 67620, -9999.000
 67680, -9999.000
 67740, -9999.000
 67800, -9999.000
 67860, -9999.000
 67920, -9999.000
 67980, -9999.000
 68040, -9999.000
 68100, -9999.000
 68160, -9999.000
 68220, -9999.000
 68280, -9999.000
 68340, -9999.000
 68400, -9999.000
 68460, -9999.000
 68520, -9999.000
 68580, -9999.000
 68640, -9999.000
 68700, -9999.000
 68760, -9999.000
 68820, -9999.000
 68880, -9999.000
 68940, -9999.000
 69000, -9999.000
 69060, -9999.000
 69120, -9999.000
 69180, -9999.000
 69240, -9999.000
 69300, -9999.000
 69360, -9999.000
 69420, -9999.000
 69480, -9999.000
 69540, -9999.000
 69600, -9999.000
 69660, -9999.000
 69720, -9999.000
 69780, -9999.000
 69840, -9999.000
 69900, -9999.000
 69960, -9999.000
 70020, -9999.000
 70080, -9999.000
 70140, -9999.000
 70200, -9999.000
 70260, -9999.000
 70320, -9999.000
 70380, -9999.000
 70440, -9999.000
 70500, -9999.000
 70560, -9999.000
 70620, -9999.000
 70680, -9999.000
 70740, -9999.000
 70800, -9999.000
 70860, -9999.000
 70920, -9999.000
 70980, -9999.000
 71040, -9999.000
 71100, -9999.000
 71160, -9999.000
 71220, -9999.000
 71280, -9999.000
 71340, -9999.000
 71400, -9999.000
 71460, -9999.000
 71520, -9999.000
 71580, -9999.000
 71640, -9999.000
 71700, -9999.000
 71760, -9999.000
 71820, -9999.000
 71880, -9999.000
 71940, -9999.000
 72000, -9999.000
 72060, -9999.000
 72120, -9999.000
 72180, -9999.000
 72240, -9999.000
 72300, -9999.000
 72360, -9999.000
 72420, -9999.000
 72480, -9999.000
 72540, -9999.000
 72600, -9999.000
 72660, -9999.000
 72720, -9999.000
 72780, -9999.000
 72840, -9999.000
 72900, -9999.000
 72960, -9999.000
 73020, -9999.000
 73080, -9999.000
 73140, -9999.000
 73200, -9999.000
 73260, -9999.000
 73320, -9999.000
 73380, -9999.000
 73440, -9999.000
 73500, -9999.000
 73560, -9999.000
 73620, -9999.000
 73680, -9999.000
 73740, -9999.000
 73800, -9999.000
 73860, -9999.000
 73920, -9999.000
 73980, -9999.000
 74040, -9999.000
 74100, -9999.000
 74160, -9999.000
 74220, -9999.000
 74280, -9999.000
 74340, -9999.000
 74400, -9999.000
 74460, -9999.000
 74520, -9999.000
 74580, -9999.000
 74640, -9999.000
 74700, -9999.000
 74760, -9999.000
 74820, -9999.000
 74880, -9999.000
 74940, -9999.000
 75000, -9999.000
 75060, -9999.000
 75120, -9999.000
 75180, -9999.000
 75240, -9999.000
 75300, -9999.000
 75360, -9999.000
 75420, -9999.000
 75480, -9999.000
 75540, -9999.000
 75600, -9999.000
 75660, -9999.000
 75720, -9999.000
 75780, -9999.000
 75840, -9999.000
 75900, -9999.000
 75960, -9999.000
 76020, -9999.000
 76080, -9999.000
 76140, -9999.000
 76200, -9999.000
 76260, -9999.000
 76320, -9999.000
 76380, -9999.000
 76440, -9999.000
 76500, -9999.000
 76560, -9999.000
 76620, -9999.000
 76680, -9999.000
 76740, -9999.000
 76800, -9999.000
 76860, -9999.000
 76920, -9999.000
 76980, -9999.000
 77040, -9999.000
 77100, -9999.000
 77160, -9999.000
 77220, -9999.000
 77280, -9999.000
 77340, -9999.000
 77400, -9999.000
 77460, -9999.000
 77520, -9999.000
 77580, -9999.000
 77640, -9999.000
 77700, -9999.000
 77760, -9999.000
 77820, -9999.000
 77880, -9999.000
 77940, -9999.000
 78000, -9999.000
 78060, -9999.000
 78120, -9999.000
 78180, -9999.000
 78240, -9999.000
 78300, -9999.000
 78360, -9999.000
 78420, -9999.000
 78480, -9999.000
 78540, -9999.000
 78600, -9999.000
 78660, -9999.000
 78720, -9999.000
 78780, -9999.000
 78840, -9999.000
 78900, -9999.000
 78960, -9999.000
 79020, -9999.000
 79080, -9999.000
 79140, -9999.000
 79200, -9999.000
 79260, -9999.000
 79320, -9999.000
 79380, -9999.000
 79440, -9999.000
 79500, -9999.000
 79560, -9999.000
 79620, -9999.000
 79680, -9999.000
 79740, -9999.000
 79800, -9999.000
 79860, -9999.000
 79920, -9999.000
 79980, -9999.000
 80040, -9999.000
 80100, 443.797
 80160, 471.998
 80220, 486.172
 80280, 502.999
 80340, 521.715
 80400, 529.880
 80460, 548.362
 80520, 568.763
 80580, 574.638
 80640, 575.433
 80700, 562.634
 80760, 543.701
 80820, 545.015
 80880, 566.621
 80940, 571.282
 81000, 572.643
 81060, 571.102
 81120, 591.347
 81180, 602.465
 81240, 614.700
 81300, 631.642
 81360, 634.035
 81420, 638.326
 81480, 639.506
 81540, -9999.000
 81600, 562.239
 81660, 574.007
 81720, 614.702
 81780, 660.367
 81840, 677.704
 81900, 668.295
 81960, 676.269
 82020, 698.213
 82080, 703.222
 82140, 676.281
 82200, 661.081
 82260, 651.787
 82320, 605.589
 82380, 615.618
 82440, 602.380
 82500, 586.074
 82560, 567.573
 82620, 571.672
 82680, 630.210
 82740, 692.558
 82800, 746.004
 82860, 711.200
 82920, 655.021
 82980, 685.289
 83040, 702.244
 83100, 753.184
 83160, 771.606
 83220, 738.155
 83280, 720.891
 83340, 778.580
 83400, -9999.000
 83460, 751.264
 83520, 804.703
 83580, 827.439
 83640, 830.653
 83700, 841.431
 83760, 862.374
 83820, 870.547
 83880, 927.557
 83940, 992.151
 84000, 1024.165
 84060, 1030.647
 84120, 1013.419
 84180, 979.474
 84240, 977.148
 84300, 966.009
 84360, 953.796
 84420, 912.621
 84480, 866.312
 84540, 836.525
 84600, 807.149
 84660, 779.386
 84720, 771.137
 84780, 792.112
 84840, 770.266
 84900, 763.710
 84960, 746.033
 85020, 713.975
 85080, 702.613
 85140, 715.521
 85200, 745.452
 85260, -9999.000
 85320, 644.399
 85380, 720.576
 85440, 796.928
 85500, 854.437
 85560, 907.137
 85620, 903.639
 85680, 909.283
 85740, 952.608
 85800, 948.875
 85860, 938.189
 85920, 916.760
 85980, 888.450
 86040, 858.567
 86100, 894.211
 86160, 942.342
 86220, 967.234
 86280, 958.616
 86340, 957.845
