33, 1001
Michael A Robinson, Chris Jernigan, Subi Thakali
NOAA ESRL Chemical Sciences Laboratory and CIRES, U. of Colorado
NOAA Iodide CIMS Instrument
USOS
1, 1
2024, 07, 26, 2024, 07, 27
1
starttime_UTC, seconds_past_midnight, seconds_of_day_since_00:00:00_UTC
1
1
-9999
N2O5_NOAACIMS, pptv, Gas_N2O5_InSitu_S_AVMR, 
0
18
PI_CONTACT_INFO: 325 Broadway, R/CSD 7, Boulder, Colorado 80305; michael.a.robinson@noaa.gov; chris.jernigan@noaa.gov;
PLATFORM: NOAA CSL Mobile Lab
LOCATION: SLC, Utah
ASSOCIATED_DATA: 1Hz data also available on request.
INSTRUMENT_INFO: NOAA I- ToF CIMS
DATA_INFO: All data in parts per trillion by volume (pptv). 1 Hz data is available upon request.
UNCERTAINTY: TBD
ULOD_FLAG: -7777
ULOD_VALUE: N/A
LLOD_FLAG: -8888
LLOD_VALUE: N/A
DM_CONTACT_INFO: Nathan Howard; nathan.h.howard@noaa.gov
PROJECT_INFO: USOS, summer 2024. https://csl.noaa.gov/groups/csl7/measurements/2024usos/
STIPULATIONS_ON_USE: Users are strongly encouraged to contact the PI for proper data usage.
OTHER_COMMENTS: 
REVISION: RA
RA: Preliminary Data; For in-field use only
starttime_UTC, N2O5_NOAACIMS
     0, -9999.000
    60, -9999.000
   120, -9999.000
   180, -9999.000
   240, -9999.000
   300, -9999.000
   360, -9999.000
   420, -9999.000
   480, -9999.000
   540, -9999.000
   600, -9999.000
   660, -9999.000
   720, -9999.000
   780, -9999.000
   840, -9999.000
   900, -9999.000
   960, -9999.000
  1020, -9999.000
  1080, -9999.000
  1140, -9999.000
  1200, -9999.000
  1260, -9999.000
  1320, -9999.000
  1380, -9999.000
  1440, -9999.000
  1500, -9999.000
  1560, -9999.000
  1620, -9999.000
  1680, -9999.000
  1740, -9999.000
  1800, -9999.000
  1860, -9999.000
  1920, -9999.000
  1980, -9999.000
  2040, -9999.000
  2100, -9999.000
  2160, -9999.000
  2220, -9999.000
  2280, -9999.000
  2340, -9999.000
  2400, -9999.000
  2460, -9999.000
  2520, -9999.000
  2580, -9999.000
  2640, -9999.000
  2700, -9999.000
  2760, -9999.000
  2820, -9999.000
  2880, -9999.000
  2940, -9999.000
  3000, -9999.000
  3060, -9999.000
  3120, -9999.000
  3180, -9999.000
  3240, -9999.000
  3300, -9999.000
  3360, -9999.000
  3420, -9999.000
  3480, -9999.000
  3540, -9999.000
  3600, -9999.000
  3660, -9999.000
  3720, -9999.000
  3780, -9999.000
  3840, -9999.000
  3900, -9999.000
  3960, -9999.000
  4020, -9999.000
  4080, -9999.000
  4140, -9999.000
  4200, -9999.000
  4260, -9999.000
  4320, -9999.000
  4380, -9999.000
  4440, -9999.000
  4500, -9999.000
  4560, -9999.000
  4620, -9999.000
  4680, -9999.000
  4740, -9999.000
  4800, -9999.000
  4860, -9999.000
  4920, -9999.000
  4980, -9999.000
  5040, -9999.000
  5100, -9999.000
  5160, -9999.000
  5220, -9999.000
  5280,  0.625
  5340,  0.622
  5400,  0.707
  5460,  0.512
  5520,  0.511
  5580,  0.552
  5640,  0.373
  5700,  0.356
  5760,  0.292
  5820,  0.447
  5880,  0.734
  5940,  0.578
  6000,  0.622
  6060,  0.516
  6120,  0.545
  6180,  0.486
  6240,  0.435
  6300,  0.588
  6360,  0.772
  6420,  0.741
  6480,  0.793
  6540,  1.032
  6600,  0.989
  6660,  1.212
  6720,  1.057
  6780,  1.164
  6840,  1.052
  6900,  1.158
  6960,  1.158
  7020,  1.191
  7080,  1.105
  7140,  1.177
  7200,  1.383
  7260,  1.723
  7320,  1.745
  7380,  1.739
  7440,  1.920
  7500,  2.140
  7560, -9999.000
  7620,  1.359
  7680,  1.833
  7740,  1.785
  7800,  1.340
  7860,  1.288
  7920,  1.404
  7980,  1.544
  8040,  1.832
  8100,  2.089
  8160,  1.779
  8220,  2.227
  8280,  2.145
  8340,  2.275
  8400,  3.782
  8460,  4.990
  8520,  3.881
  8580,  3.039
  8640,  1.948
  8700,  1.929
  8760,  1.825
  8820,  2.184
  8880,  1.871
  8940,  1.660
  9000,  1.742
  9060,  1.382
  9120,  0.883
  9180,  1.567
  9240,  1.392
  9300,  1.220
  9360,  1.079
  9420, -9999.000
  9480,  0.954
  9540,  1.209
  9600,  0.829
  9660,  0.832
  9720,  0.870
  9780,  0.597
  9840,  0.597
  9900,  0.670
  9960,  0.669
 10020,  1.024
 10080,  0.989
 10140,  0.841
 10200,  0.678
 10260,  0.973
 10320,  0.906
 10380,  1.076
 10440,  1.075
 10500,  1.005
 10560,  1.291
 10620,  1.329
 10680,  1.439
 10740,  1.227
 10800,  1.340
 10860,  1.131
 10920,  1.035
 10980,  0.878
 11040,  0.710
 11100,  0.867
 11160,  0.781
 11220,  0.785
 11280, -9999.000
 11340,  1.002
 11400,  0.685
 11460,  0.967
 11520,  0.887
 11580,  0.742
 11640,  0.828
 11700,  0.542
 11760,  0.782
 11820,  0.681
 11880,  0.789
 11940,  0.672
 12000,  0.897
 12060,  1.238
 12120,  1.254
 12180,  1.278
 12240,  1.397
 12300,  1.133
 12360,  1.305
 12420,  2.449
 12480,  6.967
 12540,  8.895
 12600,  9.975
 12660, 13.708
 12720, 14.957
 12780, 13.495
 12840, 13.376
 12900, 13.061
 12960, 11.186
 13020, 12.461
 13080, 12.807
 13140, -9999.000
 13200, 11.913
 13260,  9.880
 13320, 11.329
 13380, 10.254
 13440,  9.152
 13500,  8.492
 13560,  8.814
 13620,  8.653
 13680,  8.884
 13740,  9.641
 13800, 10.409
 13860, 11.814
 13920, 17.562
 13980, 20.560
 14040, 22.569
 14100, 31.463
 14160, 24.687
 14220, 30.136
 14280, 29.189
 14340, 34.046
 14400, 38.289
 14460, 35.456
 14520, 22.614
 14580, 20.454
 14640, 15.909
 14700, 14.858
 14760, 12.647
 14820, 11.426
 14880, 11.687
 14940, 11.541
 15000, -9999.000
 15060,  9.529
 15120, 10.590
 15180,  9.960
 15240,  9.743
 15300,  9.881
 15360,  9.094
 15420,  8.710
 15480, 10.290
 15540, 13.821
 15600, 14.200
 15660, 15.984
 15720, 16.597
 15780, 16.203
 15840, 18.221
 15900, 21.588
 15960, 21.159
 16020, 21.587
 16080, 28.345
 16140, 24.916
 16200, 22.720
 16260, 24.818
 16320, 26.374
 16380, 22.197
 16440, 20.287
 16500, 20.686
 16560, 19.058
 16620, 20.287
 16680, 19.887
 16740, 19.987
 16800, 24.446
 16860, 17.992
 16920, 22.831
 16980, 26.439
 17040, 21.710
 17100, 20.925
 17160, 25.118
 17220, 26.670
 17280, 23.016
 17340, 21.292
 17400, 20.990
 17460, 20.436
 17520, 26.076
 17580, 25.324
 17640, 21.317
 17700, 20.745
 17760, 20.633
 17820, 19.351
 17880, 20.333
 17940, 22.464
 18000, 24.565
 18060, 24.163
 18120, 21.523
 18180, 23.198
 18240, 20.695
 18300, 19.207
 18360, 21.234
 18420, 20.677
 18480, 20.695
 18540, 19.894
 18600, 21.245
 18660, 18.984
 18720, -9999.000
 18780, 24.477
 18840, 22.221
 18900, 18.160
 18960, 13.192
 19020, 12.558
 19080, 10.559
 19140,  9.598
 19200,  8.856
 19260,  7.932
 19320,  9.662
 19380,  8.728
 19440,  7.586
 19500,  9.542
 19560,  7.510
 19620,  7.630
 19680,  7.358
 19740,  8.505
 19800, 10.798
 19860,  8.588
 19920,  6.844
 19980,  5.197
 20040,  6.462
 20100,  4.596
 20160,  6.754
 20220,  6.378
 20280,  6.614
 20340,  6.002
 20400,  5.212
 20460,  5.642
 20520,  6.566
 20580,  6.980
 20640,  6.689
 20700,  5.805
 20760,  4.878
 20820,  5.329
 20880,  5.127
 20940,  6.514
 21000,  5.941
 21060,  5.670
 21120,  4.863
 21180,  5.351
 21240,  4.981
 21300,  5.234
 21360,  5.017
 21420,  5.229
 21480,  5.118
 21540,  5.549
 21600,  5.033
 21660,  4.994
 21720,  5.201
 21780,  5.783
 21840,  5.708
 21900,  5.834
 21960,  5.840
 22020,  5.698
 22080,  5.471
 22140,  5.651
 22200,  5.516
 22260,  4.937
 22320,  5.450
 22380, -9999.000
 22440,  4.867
 22500,  4.996
 22560,  3.817
 22620,  4.420
 22680,  4.041
 22740,  4.643
 22800,  4.038
 22860,  4.398
 22920,  3.896
 22980,  3.949
 23040,  3.836
 23100,  4.283
 23160,  3.998
 23220,  3.528
 23280,  3.614
 23340,  3.599
 23400,  3.473
 23460,  4.175
 23520,  6.826
 23580,  9.578
 23640,  9.136
 23700,  8.708
 23760, 14.305
 23820, 15.004
 23880, 12.829
 23940, 15.917
 24000, 16.219
 24060, 12.821
 24120, 12.973
 24180, 11.251
 24240, 13.278
 24300,  9.371
 24360,  9.783
 24420, 15.265
 24480, 24.026
 24540, 20.191
 24600, 16.986
 24660, 14.542
 24720, 13.078
 24780, 17.504
 24840, 20.492
 24900, 17.327
 24960, 17.936
 25020, 16.221
 25080, 18.055
 25140, 20.544
 25200, 15.965
 25260, 15.617
 25320, 18.020
 25380, 15.075
 25440, 15.104
 25500, 13.177
 25560, 11.047
 25620, 12.537
 25680, 19.645
 25740, 15.896
 25800, 12.859
 25860, 15.990
 25920, 13.901
 25980, 16.323
 26040, 15.670
 26100, -9999.000
 26160, 14.624
 26220, 18.047
 26280, 16.994
 26340, 19.601
 26400, 18.502
 26460, 16.496
 26520, 15.861
 26580, 13.485
 26640, 14.136
 26700, 15.001
 26760, 14.165
 26820, 12.904
 26880, 11.788
 26940, 10.385
 27000, 10.713
 27060,  9.022
 27120,  8.476
 27180,  7.464
 27240,  8.799
 27300,  9.000
 27360,  8.767
 27420,  9.222
 27480,  9.479
 27540, 10.008
 27600, 10.317
 27660, 11.512
 27720, 11.904
 27780, 11.778
 27840, 13.549
 27900, 15.104
 27960, -9999.000
 28020, 16.139
 28080, 17.779
 28140, 16.141
 28200, 15.268
 28260, 15.104
 28320, 16.753
 28380, 16.296
 28440, 16.472
 28500, 16.995
 28560, 17.144
 28620, 17.256
 28680, 17.314
 28740, 17.160
 28800, 17.266
 28860, 14.877
 28920, 15.219
 28980, 15.634
 29040, 18.428
 29100, 17.869
 29160, 18.599
 29220, 17.829
 29280, 16.478
 29340, 16.102
 29400, 16.968
 29460, 17.299
 29520, 16.837
 29580, 16.986
 29640, 16.448
 29700, 13.915
 29760, 15.455
 29820, -9999.000
 29880, 13.937
 29940, 14.403
 30000, 10.086
 30060,  9.018
 30120,  6.128
 30180,  6.390
 30240,  5.256
 30300,  3.624
 30360,  2.963
 30420,  2.455
 30480,  2.281
 30540,  1.808
 30600,  2.060
 30660,  2.120
 30720,  1.830
 30780,  1.845
 30840,  2.114
 30900,  1.937
 30960,  2.308
 31020,  1.907
 31080,  2.321
 31140,  2.286
 31200,  2.193
 31260,  2.550
 31320,  2.500
 31380,  2.659
 31440,  2.270
 31500,  2.634
 31560,  2.470
 31620,  2.764
 31680, -9999.000
 31740,  2.257
 31800,  2.998
 31860,  3.620
 31920,  3.340
 31980,  3.163
 32040,  3.339
 32100,  3.023
 32160,  3.502
 32220,  4.098
 32280,  3.885
 32340,  4.115
 32400,  4.018
 32460,  4.311
 32520,  4.730
 32580,  3.924
 32640,  4.480
 32700,  4.367
 32760,  4.684
 32820,  4.250
 32880,  4.549
 32940,  4.325
 33000,  4.487
 33060,  4.080
 33120,  4.071
 33180,  4.480
 33240,  5.308
 33300,  4.580
 33360,  4.674
 33420,  4.882
 33480,  4.469
 33540, -9999.000
 33600,  3.738
 33660,  2.874
 33720,  3.035
 33780,  3.229
 33840,  2.900
 33900,  3.156
 33960,  2.679
 34020,  2.569
 34080,  2.245
 34140,  2.493
 34200,  3.109
 34260,  3.324
 34320,  3.307
 34380,  4.386
 34440,  3.633
 34500,  2.982
 34560,  3.499
 34620,  2.762
 34680,  3.661
 34740,  2.964
 34800,  2.590
 34860,  3.347
 34920,  3.132
 34980,  3.439
 35040,  5.435
 35100,  5.382
 35160,  5.598
 35220,  5.245
 35280,  6.161
 35340,  5.607
 35400,  5.593
 35460,  5.786
 35520,  5.932
 35580,  4.385
 35640,  4.679
 35700,  4.385
 35760,  4.942
 35820,  4.742
 35880,  5.022
 35940,  4.742
 36000,  4.390
 36060,  7.161
 36120,  6.866
 36180,  7.634
 36240,  7.757
 36300,  7.717
 36360,  8.334
 36420,  8.807
 36480,  7.831
 36540,  6.722
 36600,  5.193
 36660,  4.664
 36720,  3.621
 36780,  2.756
 36840,  2.850
 36900,  3.933
 36960,  2.873
 37020,  2.827
 37080,  2.971
 37140,  3.013
 37200,  2.411
 37260, -9999.000
 37320,  2.509
 37380,  2.153
 37440,  2.532
 37500,  2.931
 37560,  2.880
 37620,  3.160
 37680,  3.911
 37740,  4.366
 37800,  4.346
 37860,  4.338
 37920,  4.431
 37980,  4.909
 38040,  5.895
 38100,  5.573
 38160,  7.484
 38220,  4.406
 38280,  6.389
 38340,  8.453
 38400,  7.240
 38460,  7.296
 38520,  7.609
 38580,  7.761
 38640,  8.287
 38700, 10.295
 38760, 12.157
 38820, 14.104
 38880, 14.360
 38940, 14.758
 39000, 12.397
 39060, 10.255
 39120, 11.535
 39180, 10.813
 39240,  9.557
 39300,  9.164
 39360,  9.728
 39420,  8.847
 39480,  8.906
 39540,  8.302
 39600,  7.441
 39660,  7.302
 39720,  5.956
 39780,  6.681
 39840,  6.052
 39900,  6.200
 39960,  7.109
 40020,  8.940
 40080,  8.877
 40140,  7.549
 40200,  8.022
 40260,  7.687
 40320,  8.569
 40380, 11.507
 40440, 11.436
 40500, 10.207
 40560, 10.001
 40620, 10.799
 40680, 13.106
 40740, 13.432
 40800, 15.159
 40860, 11.976
 40920, -9999.000
 40980, 17.414
 41040, 14.595
 41100, 15.533
 41160, 17.358
 41220, 15.840
 41280, 15.124
 41340, 19.814
 41400, 18.514
 41460, 17.138
 41520, 17.526
 41580, 15.803
 41640, 13.642
 41700, 13.024
 41760, 14.793
 41820, 13.507
 41880, 15.248
 41940, 16.577
 42000, 14.732
 42060, 16.221
 42120, 15.326
 42180, 14.312
 42240, 13.203
 42300, 13.351
 42360, 15.806
 42420, 13.291
 42480, 14.226
 42540, 14.076
 42600, 15.244
 42660, 25.230
 42720, 18.104
 42780, 17.633
 42840, 12.705
 42900, 14.671
 42960, 19.810
 43020, 14.753
 43080, 14.416
 43140, 13.614
 43200, 12.662
 43260, 16.228
 43320, 14.464
 43380, 15.670
 43440, 15.616
 43500, 17.407
 43560, 16.621
 43620, 13.102
 43680, 14.932
 43740, 12.838
 43800, 15.237
 43860, 14.061
 43920, 14.244
 43980, 19.776
 44040, 16.367
 44100, 17.535
 44160, 14.094
 44220, 14.556
 44280, 12.622
 44340, 14.938
 44400, 16.220
 44460, 16.163
 44520, 13.660
 44580, 12.258
 44640, -9999.000
 44700,  9.834
 44760, 10.335
 44820,  9.830
 44880,  9.124
 44940,  8.885
 45000,  7.625
 45060,  5.602
 45120,  5.730
 45180,  4.508
 45240,  5.496
 45300,  4.171
 45360,  4.139
 45420,  4.238
 45480,  3.634
 45540,  3.352
 45600,  2.730
 45660,  3.022
 45720,  2.206
 45780,  3.080
 45840,  2.726
 45900,  2.400
 45960,  2.293
 46020,  2.486
 46080,  2.499
 46140,  2.309
 46200,  2.020
 46260,  2.085
 46320,  1.653
 46380,  1.811
 46440,  1.297
 46500, -9999.000
 46560,  1.561
 46620,  1.737
 46680,  1.949
 46740,  1.626
 46800, -9999.000
 46860, -9999.000
 46920, -9999.000
 46980, -9999.000
 47040, -9999.000
 47100, -9999.000
 47160, -9999.000
 47220, -9999.000
 47280, -9999.000
 47340, -9999.000
 47400, -9999.000
 47460, -9999.000
 47520, -9999.000
 47580, -9999.000
 47640, -9999.000
 47700, -9999.000
 47760, -9999.000
 47820, -9999.000
 47880, -9999.000
 47940, -9999.000
 48000, -9999.000
 48060, -9999.000
 48120, -9999.000
 48180, -9999.000
 48240, -9999.000
 48300, -9999.000
 48360, -9999.000
 48420, -9999.000
 48480, -9999.000
 48540, -9999.000
 48600, -9999.000
 48660, -9999.000
 48720, -9999.000
 48780, -9999.000
 48840, -9999.000
 48900, -9999.000
 48960, -9999.000
 49020, -9999.000
 49080, -9999.000
 49140, -9999.000
 49200, -9999.000
 49260, -9999.000
 49320, -9999.000
 49380, -9999.000
 49440, -9999.000
 49500, -9999.000
 49560, -9999.000
 49620, -9999.000
 49680, -9999.000
 49740, -9999.000
 49800, -9999.000
 49860, -9999.000
 49920, -9999.000
 49980, -9999.000
 50040, -9999.000
 50100, -9999.000
 50160, -9999.000
 50220, -9999.000
 50280, -9999.000
 50340, -9999.000
 50400, -9999.000
 50460, -9999.000
 50520, -9999.000
 50580, -9999.000
 50640, -9999.000
 50700, -9999.000
 50760, -9999.000
 50820, -9999.000
 50880, -9999.000
 50940, -9999.000
 51000, -9999.000
 51060, -9999.000
 51120, -9999.000
 51180, -9999.000
 51240, -9999.000
 51300, -9999.000
 51360, -9999.000
 51420, -9999.000
 51480, -9999.000
 51540, -9999.000
 51600, -9999.000
 51660, -9999.000
 51720, -9999.000
 51780, -9999.000
 51840, -9999.000
 51900, -9999.000
 51960, -9999.000
 52020, -9999.000
 52080, -9999.000
 52140, -9999.000
 52200, -9999.000
 52260, -9999.000
 52320, -9999.000
 52380, -9999.000
 52440, -9999.000
 52500, -9999.000
 52560, -9999.000
 52620, -9999.000
 52680, -9999.000
 52740, -9999.000
 52800, -9999.000
 52860, -9999.000
 52920, -9999.000
 52980, -9999.000
 53040, -9999.000
 53100, -9999.000
 53160, -9999.000
 53220, -9999.000
 53280, -9999.000
 53340, -9999.000
 53400, -9999.000
 53460, -9999.000
 53520, -9999.000
 53580, -9999.000
 53640, -9999.000
 53700, -9999.000
 53760, -9999.000
 53820, -9999.000
 53880, -9999.000
 53940, -9999.000
 54000, -9999.000
 54060, -9999.000
 54120, -9999.000
 54180, -9999.000
 54240, -9999.000
 54300, -9999.000
 54360, -9999.000
 54420, -9999.000
 54480, -9999.000
 54540, -9999.000
 54600, -9999.000
 54660, -9999.000
 54720, -9999.000
 54780, -9999.000
 54840, -9999.000
 54900, -9999.000
 54960, -9999.000
 55020, -9999.000
 55080, -9999.000
 55140, -9999.000
 55200, -9999.000
 55260, -9999.000
 55320, -9999.000
 55380, -9999.000
 55440, -9999.000
 55500, -9999.000
 55560, -9999.000
 55620, -9999.000
 55680, -9999.000
 55740, -9999.000
 55800, -9999.000
 55860, -9999.000
 55920, -9999.000
 55980, -9999.000
 56040, -9999.000
 56100, -9999.000
 56160, -9999.000
 56220, -9999.000
 56280, -9999.000
 56340, -9999.000
 56400, -9999.000
 56460, -9999.000
 56520, -9999.000
 56580, -9999.000
 56640, -9999.000
 56700, -9999.000
 56760, -9999.000
 56820, -9999.000
 56880, -9999.000
 56940, -9999.000
 57000, -9999.000
 57060, -9999.000
 57120, -9999.000
 57180, -9999.000
 57240, -9999.000
 57300, -9999.000
 57360, -9999.000
 57420, -9999.000
 57480, -9999.000
 57540, -9999.000
 57600, -9999.000
 57660, -9999.000
 57720, -9999.000
 57780, -9999.000
 57840, -9999.000
 57900, -9999.000
 57960, -9999.000
 58020, -9999.000
 58080, -9999.000
 58140, -9999.000
 58200, -9999.000
 58260, -9999.000
 58320, -9999.000
 58380, -9999.000
 58440, -9999.000
 58500, -9999.000
 58560, -9999.000
 58620, -9999.000
 58680, -9999.000
 58740, -9999.000
 58800, -9999.000
 58860, -9999.000
 58920, -9999.000
 58980, -9999.000
 59040, -9999.000
 59100, -9999.000
 59160, -9999.000
 59220, -9999.000
 59280, -9999.000
 59340, -9999.000
 59400, -9999.000
 59460, -9999.000
 59520, -9999.000
 59580, -9999.000
 59640, -9999.000
 59700, -9999.000
 59760, -9999.000
 59820, -9999.000
 59880, -9999.000
 59940, -9999.000
 60000, -9999.000
 60060, -9999.000
 60120, -9999.000
 60180, -9999.000
 60240, -9999.000
 60300, -9999.000
 60360, -9999.000
 60420, -9999.000
 60480, -9999.000
 60540, -9999.000
 60600, -9999.000
 60660, -9999.000
 60720, -9999.000
 60780, -9999.000
 60840, -9999.000
 60900, -9999.000
 60960, -9999.000
 61020, -9999.000
 61080, -9999.000
 61140, -9999.000
 61200, -9999.000
 61260, -9999.000
 61320, -9999.000
 61380, -9999.000
 61440, -9999.000
 61500, -9999.000
 61560, -9999.000
 61620, -9999.000
 61680, -9999.000
 61740, -9999.000
 61800, -9999.000
 61860, -9999.000
 61920, -9999.000
 61980, -9999.000
 62040, -9999.000
 62100, -9999.000
 62160, -9999.000
 62220, -9999.000
 62280, -9999.000
 62340, -9999.000
 62400, -9999.000
 62460, -9999.000
 62520, -9999.000
 62580, -9999.000
 62640, -9999.000
 62700, -9999.000
 62760, -9999.000
 62820, -9999.000
 62880, -9999.000
 62940, -9999.000
 63000, -9999.000
 63060, -9999.000
 63120, -9999.000
 63180, -9999.000
 63240, -9999.000
 63300, -9999.000
 63360, -9999.000
 63420, -9999.000
 63480, -9999.000
 63540, -9999.000
 63600, -9999.000
 63660, -9999.000
 63720, -9999.000
 63780, -9999.000
 63840, -9999.000
 63900, -9999.000
 63960, -9999.000
 64020, -9999.000
 64080, -9999.000
 64140, -9999.000
 64200, -9999.000
 64260, -9999.000
 64320, -9999.000
 64380, -9999.000
 64440, -9999.000
 64500, -9999.000
 64560, -9999.000
 64620, -9999.000
 64680, -9999.000
 64740, -9999.000
 64800, -9999.000
 64860, -9999.000
 64920, -9999.000
 64980, -9999.000
 65040, -9999.000
 65100, -9999.000
 65160, -9999.000
 65220, -9999.000
 65280, -9999.000
 65340, -9999.000
 65400, -9999.000
 65460, -9999.000
 65520, -9999.000
 65580, -9999.000
 65640, -9999.000
 65700, -9999.000
 65760, -9999.000
 65820, -9999.000
 65880, -9999.000
 65940, -9999.000
 66000, -9999.000
 66060, -9999.000
 66120, -9999.000
 66180, -9999.000
 66240, -9999.000
 66300, -9999.000
 66360, -9999.000
 66420, -9999.000
 66480, -9999.000
 66540, -9999.000
 66600, -9999.000
 66660, -9999.000
 66720, -9999.000
 66780, -9999.000
 66840, -9999.000
 66900, -9999.000
 66960, -9999.000
 67020, -9999.000
 67080, -9999.000
 67140, -9999.000
 67200, -9999.000
 67260, -9999.000
 67320, -9999.000
 67380, -9999.000
 67440, -9999.000
 67500, -9999.000
 67560, -9999.000
 67620, -9999.000
 67680, -9999.000
 67740, -9999.000
 67800, -9999.000
 67860, -9999.000
 67920, -9999.000
 67980, -9999.000
 68040, -9999.000
 68100, -9999.000
 68160, -9999.000
 68220, -9999.000
 68280, -9999.000
 68340, -9999.000
 68400, -9999.000
 68460, -9999.000
 68520, -9999.000
 68580, -9999.000
 68640, -9999.000
 68700, -9999.000
 68760, -9999.000
 68820, -9999.000
 68880, -9999.000
 68940, -9999.000
 69000, -9999.000
 69060, -9999.000
 69120, -9999.000
 69180, -9999.000
 69240, -9999.000
 69300, -9999.000
 69360, -9999.000
 69420, -9999.000
 69480, -9999.000
 69540, -9999.000
 69600, -9999.000
 69660, -9999.000
 69720, -9999.000
 69780, -9999.000
 69840, -9999.000
 69900, -9999.000
 69960, -9999.000
 70020, -9999.000
 70080, -9999.000
 70140, -9999.000
 70200, -9999.000
 70260, -9999.000
 70320, -9999.000
 70380, -9999.000
 70440, -9999.000
 70500, -9999.000
 70560, -9999.000
 70620, -9999.000
 70680, -9999.000
 70740, -9999.000
 70800, -9999.000
 70860, -9999.000
 70920, -9999.000
 70980, -9999.000
 71040, -9999.000
 71100, -9999.000
 71160, -9999.000
 71220, -9999.000
 71280, -9999.000
 71340, -9999.000
 71400, -9999.000
 71460, -9999.000
 71520, -9999.000
 71580, -9999.000
 71640, -9999.000
 71700, -9999.000
 71760, -9999.000
 71820, -9999.000
 71880, -9999.000
 71940, -9999.000
 72000, -9999.000
 72060, -9999.000
 72120, -9999.000
 72180, -9999.000
 72240, -9999.000
 72300, -9999.000
 72360, -9999.000
 72420, -9999.000
 72480, -9999.000
 72540, -9999.000
 72600, -9999.000
 72660, -9999.000
 72720, -9999.000
 72780, -9999.000
 72840, -9999.000
 72900, -9999.000
 72960, -9999.000
 73020, -9999.000
 73080, -9999.000
 73140, -9999.000
 73200, -9999.000
 73260, -9999.000
 73320, -9999.000
 73380, -9999.000
 73440, -9999.000
 73500, -9999.000
 73560, -9999.000
 73620, -9999.000
 73680, -9999.000
 73740, -9999.000
 73800, -9999.000
 73860, -9999.000
 73920, -9999.000
 73980, -9999.000
 74040, -9999.000
 74100, -9999.000
 74160, -9999.000
 74220, -9999.000
 74280, -9999.000
 74340, -9999.000
 74400, -9999.000
 74460, -9999.000
 74520, -9999.000
 74580, -9999.000
 74640, -9999.000
 74700, -9999.000
 74760, -9999.000
 74820, -9999.000
 74880, -9999.000
 74940, -9999.000
 75000, -9999.000
 75060, -9999.000
 75120, -9999.000
 75180, -9999.000
 75240, -9999.000
 75300, -9999.000
 75360, -9999.000
 75420, -9999.000
 75480, -9999.000
 75540, -9999.000
 75600, -9999.000
 75660, -9999.000
 75720, -9999.000
 75780, -9999.000
 75840, -9999.000
 75900, -9999.000
 75960, -9999.000
 76020, -9999.000
 76080, -9999.000
 76140, -9999.000
 76200, -9999.000
 76260, -9999.000
 76320, -9999.000
 76380, -9999.000
 76440, -9999.000
 76500, -9999.000
 76560, -9999.000
 76620, -9999.000
 76680, -9999.000
 76740, -9999.000
 76800, -9999.000
 76860, -9999.000
 76920, -9999.000
 76980, -9999.000
 77040, -9999.000
 77100, -9999.000
 77160, -9999.000
 77220, -9999.000
 77280, -9999.000
 77340, -9999.000
 77400, -9999.000
 77460, -9999.000
 77520, -9999.000
 77580, -9999.000
 77640, -9999.000
 77700, -9999.000
 77760, -9999.000
 77820, -9999.000
 77880, -9999.000
 77940, -9999.000
 78000, -9999.000
 78060, -9999.000
 78120, -9999.000
 78180, -9999.000
 78240, -9999.000
 78300, -9999.000
 78360, -9999.000
 78420, -9999.000
 78480, -9999.000
 78540, -9999.000
 78600, -9999.000
 78660, -9999.000
 78720, -9999.000
 78780, -9999.000
 78840, -9999.000
 78900, -9999.000
 78960, -9999.000
 79020, -9999.000
 79080, -9999.000
 79140, -9999.000
 79200, -9999.000
 79260, -9999.000
 79320, -9999.000
 79380, -9999.000
 79440, -9999.000
 79500, -9999.000
 79560, -9999.000
 79620, -9999.000
 79680, -9999.000
 79740, -9999.000
 79800, -9999.000
 79860, -9999.000
 79920, -9999.000
 79980, -9999.000
 80040, -9999.000
 80100, -9999.000
 80160, -9999.000
 80220, -9999.000
 80280, -9999.000
 80340, -9999.000
 80400, -9999.000
 80460, -9999.000
 80520, -9999.000
 80580, -9999.000
 80640, -9999.000
 80700, -9999.000
 80760, -9999.000
 80820, -9999.000
 80880, -9999.000
 80940, -9999.000
 81000, -9999.000
 81060, -9999.000
 81120, -9999.000
 81180, -9999.000
 81240, -9999.000
 81300, -9999.000
 81360, -9999.000
 81420, -9999.000
 81480, -9999.000
 81540, -9999.000
 81600, -9999.000
 81660, -9999.000
 81720, -9999.000
 81780, -9999.000
 81840, -9999.000
 81900, -9999.000
 81960, -9999.000
 82020, -9999.000
 82080, -9999.000
 82140, -9999.000
 82200, -9999.000
 82260, -9999.000
 82320, -9999.000
 82380, -9999.000
 82440, -9999.000
 82500, -9999.000
 82560, -9999.000
 82620, -9999.000
 82680, -9999.000
 82740, -9999.000
 82800, -9999.000
 82860, -9999.000
 82920, -9999.000
 82980, -9999.000
 83040, -9999.000
 83100, -9999.000
 83160, -9999.000
 83220, -9999.000
 83280, -9999.000
 83340, -9999.000
 83400, -9999.000
 83460, -9999.000
 83520, -9999.000
 83580, -9999.000
 83640, -9999.000
 83700, -9999.000
 83760, -9999.000
 83820, -9999.000
 83880, -9999.000
 83940, -9999.000
 84000, -9999.000
 84060, -9999.000
 84120, -9999.000
 84180, -9999.000
 84240, -9999.000
 84300, -9999.000
 84360, -9999.000
 84420, -9999.000
 84480, -9999.000
 84540, -9999.000
 84600, -9999.000
 84660, -9999.000
 84720, -9999.000
 84780, -9999.000
 84840, -9999.000
 84900, -9999.000
 84960, -9999.000
 85020, -9999.000
 85080, -9999.000
 85140, -9999.000
 85200, -9999.000
 85260, -9999.000
 85320, -9999.000
 85380, -9999.000
 85440, -9999.000
 85500, -9999.000
 85560, -9999.000
 85620, -9999.000
 85680, -9999.000
 85740, -9999.000
 85800, -9999.000
 85860, -9999.000
 85920, -9999.000
 85980, -9999.000
 86040, -9999.000
 86100, -9999.000
 86160, -9999.000
 86220, -9999.000
 86280, -9999.000
 86340, -9999.000
