34, 1001
Michael A Robinson, Chris Jernigan, Subi Thakali
NOAA ESRL Chemical Sciences Laboratory and CIRES, U. of Colorado
NOAA Iodide CIMS Instrument
USOS
1, 1
2024, 07, 17, 2024, 07, 18
0
starttime_UTC, seconds_past_midnight, seconds_of_day_since_00:00:00_UTC
1
1
-9999
HNO3_NOAACIMS, pptv, Gas_HNO3_InSitu_S_AVMR
1
N/A
18
PI_CONTACT_INFO: 325 Broadway, R/CSD 7, Boulder, Colorado 80305; michael.a.robinson@noaa.gov; chris.jernigan@noaa.gov;
PLATFORM: NOAA CSL Mobile Lab
LOCATION: SLC, Utah
ASSOCIATED_DATA: 1Hz data also available on request.
INSTRUMENT_INFO: NOAA I- ToF CIMS
DATA_INFO: Units: pptv
UNCERTAINTY: tbd
ULOD_FLAG: -7777
ULOD_VALUE: N/A
LLOD_FLAG: -8888
LLOD_VALUE: N/A
DM_CONTACT_INFO: Nathan Howard; nathan.h.howard@noaa.gov
PROJECT_INFO: USOS, summer 2024. https://csl.noaa.gov/groups/csl7/measurements/2024usos/
STIPULATIONS_ON_USE: only the USOS science team is allowed to use this data
OTHER_COMMENTS: Field data; Data are averaged to 1 minute intervals. Stationary data collected from a 10 ft tower on top of the mobile lab
REVISION: RA
RA: Preliminary Data; For in-field use only
starttime_UTC, HNO3_NOAACIMS
0,-9999.000
60,260.499
120,283.035
180,322.255
240,342.492
300,330.176
360,326.952
420,309.126
480,305.405
540,329.047
600,328.276
660,340.551
720,337.786
780,311.545
840,323.118
900,365.219
960,383.223
1020,341.161
1080,320.047
1140,282.335
1200,262.638
1260,271.845
1320,285.558
1380,270.289
1440,261.477
1500,252.808
1560,258.266
1620,259.399
1680,246.414
1740,267.976
1800,257.058
1860,264.437
1920,254.688
1980,271.518
2040,305.555
2100,280.695
2160,277.568
2220,284.195
2280,280.822
2340,255.213
2400,288.571
2460,292.924
2520,296.658
2580,305.471
2640,313.935
2700,315.022
2760,315.678
2820,342.043
2880,342.866
2940,384.029
3000,401.053
3060,396.433
3120,372.056
3180,352.720
3240,373.039
3300,351.247
3360,373.099
3420,345.221
3480,321.560
3540,335.473
3600,320.124
3660,325.011
3720,274.190
3780,296.629
3840,328.472
3900,342.610
3960,364.326
4020,311.305
4080,338.730
4140,326.704
4200,327.942
4260,310.981
4320,305.396
4380,280.983
4440,280.028
4500,270.664
4560,296.974
4620,331.690
4680,317.415
4740,321.674
4800,315.170
4860,293.092
4920,292.783
4980,335.419
5040,356.649
5100,379.066
5160,384.458
5220,384.115
5280,387.855
5340,399.360
5400,422.591
5460,478.584
5520,447.274
5580,384.800
5640,405.018
5700,420.451
5760,433.388
5820,440.637
5880,454.445
5940,458.418
6000,453.823
6060,458.188
6120,440.380
6180,422.652
6240,426.774
6300,400.623
6360,397.902
6420,425.754
6480,431.803
6540,397.058
6600,410.784
6660,393.169
6720,386.465
6780,388.176
6840,390.231
6900,393.695
6960,394.259
7020,421.570
7080,404.151
7140,399.089
7200,431.445
7260,421.575
7320,441.547
7380,425.932
7440,390.368
7500,401.161
7560,412.984
7620,446.027
7680,449.474
7740,474.978
7800,464.907
7860,448.005
7920,437.741
7980,427.910
8040,434.767
8100,454.169
8160,445.223
8220,411.127
8280,412.780
8340,389.963
8400,386.236
8460,396.096
8520,458.827
8580,455.018
8640,406.012
8700,373.345
8760,400.040
8820,413.757
8880,423.957
8940,414.616
9000,379.468
9060,383.029
9120,395.257
9180,394.662
9240,362.327
9300,337.881
9360,312.964
9420,299.274
9480,318.386
9540,328.274
9600,330.129
9660,313.783
9720,309.355
9780,296.613
9840,283.971
9900,272.341
9960,266.138
10020,253.165
10080,264.058
10140,265.785
10200,264.534
10260,259.707
10320,257.748
10380,261.816
10440,270.734
10500,274.017
10560,272.302
10620,267.386
10680,268.939
10740,257.713
10800,251.958
10860,256.307
10920,255.271
10980,244.092
11040,240.198
11100,247.556
11160,232.746
11220,232.016
11280,229.331
11340,230.016
11400,236.457
11460,234.018
11520,222.500
11580,227.410
11640,221.394
11700,225.470
11760,234.275
11820,228.084
11880,218.046
11940,214.526
12000,217.342
12060,216.810
12120,213.550
12180,208.330
12240,208.563
12300,210.490
12360,203.041
12420,204.365
12480,227.665
12540,239.874
12600,254.806
12660,246.552
12720,241.587
12780,236.290
12840,230.000
12900,232.172
12960,227.671
13020,226.802
13080,241.888
13140,240.953
13200,238.327
13260,226.991
13320,215.019
13380,205.343
13440,204.095
13500,201.556
13560,216.677
13620,220.255
13680,210.750
13740,202.593
13800,201.229
13860,195.272
13920,188.262
13980,194.900
14040,200.481
14100,200.433
14160,194.832
14220,188.678
14280,187.794
14340,186.684
14400,187.758
14460,188.923
14520,192.833
14580,200.508
14640,199.077
14700,195.054
14760,195.108
14820,196.568
14880,197.613
14940,203.347
15000,207.775
15060,202.246
15120,197.476
15180,192.252
15240,185.739
15300,205.003
15360,226.563
15420,234.137
15480,237.534
15540,235.651
15600,241.886
15660,239.655
15720,232.677
15780,236.823
15840,234.150
15900,248.328
15960,250.818
16020,240.820
16080,216.003
16140,220.468
16200,245.315
16260,244.625
16320,230.159
16380,236.880
16440,237.925
16500,232.477
16560,239.393
16620,252.148
16680,238.444
16740,232.891
16800,221.895
16860,218.864
16920,224.184
16980,222.842
17040,226.653
17100,236.521
17160,232.427
17220,232.499
17280,230.159
17340,225.167
17400,237.955
17460,235.426
17520,233.129
17580,228.783
17640,219.141
17700,222.593
17760,221.412
17820,226.336
17880,231.842
17940,224.101
18000,213.473
18060,213.775
18120,212.896
18180,233.614
18240,248.684
18300,242.993
18360,232.755
18420,228.731
18480,-9999.000
18540,213.144
18600,217.953
18660,226.090
18720,227.052
18780,231.209
18840,229.600
18900,232.273
18960,212.091
19020,205.298
19080,225.948
19140,240.270
19200,238.520
19260,230.304
19320,238.541
19380,230.270
19440,231.194
19500,242.908
19560,239.178
19620,225.643
19680,213.165
19740,202.615
19800,190.885
19860,215.378
19920,218.742
19980,221.727
20040,209.599
20100,209.446
20160,190.221
20220,195.987
20280,207.543
20340,203.414
20400,201.018
20460,210.771
20520,204.421
20580,216.879
20640,218.197
20700,219.820
20760,209.894
20820,207.257
20880,194.864
20940,181.667
21000,178.092
21060,182.509
21120,194.468
21180,193.076
21240,186.777
21300,180.182
21360,196.839
21420,203.050
21480,199.595
21540,197.098
21600,189.276
21660,185.522
21720,195.590
21780,204.123
21840,207.950
21900,205.740
21960,214.813
22020,212.930
22080,-9999.000
22140,-9999.000
22200,-9999.000
22260,-9999.000
22320,189.692
22380,178.308
22440,168.225
22500,146.109
22560,175.321
22620,189.807
22680,195.141
22740,192.017
22800,183.526
22860,196.182
22920,206.592
22980,209.388
23040,208.046
23100,199.048
23160,177.410
23220,180.601
23280,198.672
23340,202.838
23400,199.706
23460,204.085
23520,200.356
23580,206.573
23640,213.192
23700,212.696
23760,211.697
23820,202.175
23880,200.787
23940,-9999.000
24000,-9999.000
24060,-9999.000
24120,-9999.000
24180,193.929
24240,196.898
24300,204.268
24360,208.804
24420,224.161
24480,229.882
24540,231.059
24600,218.127
24660,214.062
24720,212.840
24780,210.419
24840,218.835
24900,226.468
24960,226.520
25020,222.051
25080,218.356
25140,219.129
25200,210.505
25260,216.336
25320,215.847
25380,204.518
25440,202.950
25500,205.581
25560,206.126
25620,212.368
25680,211.165
25740,212.000
25800,204.800
25860,202.640
25920,189.805
25980,203.955
26040,219.239
26100,227.892
26160,220.445
26220,214.099
26280,212.484
26340,217.860
26400,215.898
26460,214.720
26520,217.382
26580,224.242
26640,219.965
26700,212.606
26760,210.930
26820,211.134
26880,206.239
26940,204.804
27000,206.563
27060,210.330
27120,207.179
27180,189.157
27240,180.070
27300,175.347
27360,186.998
27420,199.972
27480,206.024
27540,208.904
27600,210.923
27660,210.211
27720,212.827
27780,215.512
27840,224.878
27900,219.859
27960,203.641
28020,197.899
28080,201.614
28140,201.495
28200,210.111
28260,216.075
28320,213.416
28380,208.270
28440,203.742
28500,200.656
28560,215.177
28620,220.524
28680,221.571
28740,215.519
28800,214.992
28860,212.794
28920,216.112
28980,218.344
29040,215.309
29100,202.883
29160,192.021
29220,183.218
29280,181.776
29340,186.248
29400,183.836
29460,191.973
29520,196.712
29580,193.739
29640,179.104
29700,179.642
29760,175.959
29820,134.523
29880,112.434
29940,151.832
30000,188.300
30060,203.185
30120,208.559
30180,193.779
30240,191.385
30300,185.814
30360,195.766
30420,210.188
30480,216.551
30540,216.681
30600,208.845
30660,201.856
30720,216.617
30780,227.078
30840,226.745
30900,230.718
30960,226.437
31020,222.834
31080,219.842
31140,219.080
31200,226.080
31260,227.624
31320,220.004
31380,217.120
31440,205.274
31500,212.398
31560,221.633
31620,219.793
31680,214.030
31740,208.765
31800,205.042
31860,202.244
31920,201.940
31980,208.571
32040,208.461
32100,205.527
32160,208.835
32220,209.914
32280,207.349
32340,211.732
32400,213.154
32460,210.305
32520,203.594
32580,199.642
32640,195.475
32700,202.041
32760,212.068
32820,216.260
32880,212.301
32940,208.555
33000,201.840
33060,201.907
33120,202.286
33180,205.917
33240,205.179
33300,195.631
33360,197.138
33420,200.807
33480,199.115
33540,204.401
33600,207.498
33660,210.924
33720,206.222
33780,207.580
33840,209.654
33900,212.906
33960,212.785
34020,213.538
34080,210.052
34140,202.418
34200,201.704
34260,205.633
34320,207.630
34380,212.851
34440,215.555
34500,216.280
34560,214.334
34620,209.548
34680,205.346
34740,209.864
34800,218.216
34860,213.059
34920,212.352
34980,208.208
35040,203.176
35100,209.988
35160,211.549
35220,209.567
35280,204.194
35340,201.484
35400,201.068
35460,206.651
35520,213.082
35580,215.598
35640,212.650
35700,201.201
35760,194.742
35820,190.083
35880,196.189
35940,201.618
36000,199.638
36060,194.075
36120,186.218
36180,178.293
36240,182.038
36300,183.686
36360,180.995
36420,171.737
36480,170.521
36540,167.893
36600,175.616
36660,179.086
36720,182.003
36780,185.966
36840,190.006
36900,190.713
36960,-9999.000
37020,181.756
37080,183.050
37140,187.892
37200,193.262
37260,195.602
37320,198.808
37380,194.666
37440,190.909
37500,187.828
37560,185.730
37620,192.775
37680,192.952
37740,193.660
37800,194.939
37860,189.088
37920,190.921
37980,198.177
38040,201.578
38100,197.789
38160,192.673
38220,188.579
38280,190.608
38340,197.520
38400,194.961
38460,191.995
38520,191.408
38580,184.090
38640,188.162
38700,192.784
38760,201.234
38820,194.566
38880,193.973
38940,192.602
39000,194.366
39060,202.577
39120,196.793
39180,193.260
39240,186.100
39300,176.777
39360,183.781
39420,195.592
39480,190.855
39540,189.994
39600,186.533
39660,185.547
39720,190.622
39780,190.104
39840,189.049
39900,178.276
39960,174.125
40020,168.442
40080,164.846
40140,168.521
40200,174.901
40260,183.028
40320,180.576
40380,181.521
40440,186.242
40500,183.949
40560,180.710
40620,177.573
40680,169.934
40740,166.831
40800,168.855
40860,168.964
40920,165.525
40980,163.032
41040,161.144
41100,162.242
41160,166.418
41220,166.292
41280,165.394
41340,165.854
41400,167.005
41460,172.691
41520,169.951
41580,163.762
41640,158.171
41700,158.729
41760,161.974
41820,166.217
41880,169.452
41940,169.245
42000,169.876
42060,169.091
42120,171.713
42180,169.460
42240,163.002
42300,158.724
42360,163.656
42420,166.427
42480,176.370
42540,173.856
42600,169.648
42660,158.902
42720,161.614
42780,171.142
42840,177.095
42900,178.126
42960,171.476
43020,170.610
43080,178.085
43140,185.870
43200,181.378
43260,175.943
43320,175.664
43380,182.548
43440,179.090
43500,174.349
43560,172.966
43620,169.517
43680,173.643
43740,175.173
43800,169.310
43860,157.832
43920,151.183
43980,154.315
44040,163.450
44100,166.050
44160,162.566
44220,164.548
44280,159.624
44340,158.331
44400,164.879
44460,166.309
44520,155.832
44580,158.288
44640,163.965
44700,157.048
44760,155.419
44820,152.804
44880,153.676
44940,155.101
45000,162.221
45060,162.606
45120,164.832
45180,170.113
45240,165.944
45300,163.169
45360,159.010
45420,147.258
45480,148.086
45540,149.408
45600,148.990
45660,146.885
45720,165.711
45780,171.109
45840,169.031
45900,166.286
45960,159.210
46020,161.545
46080,157.699
46140,145.408
46200,143.919
46260,135.839
46320,146.349
46380,154.479
46440,145.965
46500,142.414
46560,144.371
46620,145.569
46680,133.290
46740,123.409
46800,118.083
46860,209.069
46920,323.521
46980,308.710
47040,293.609
47100,287.853
47160,279.603
47220,264.653
47280,254.852
47340,250.647
47400,248.064
47460,252.194
47520,252.027
47580,239.975
47640,224.529
47700,215.434
47760,214.495
47820,213.399
47880,216.180
47940,200.679
48000,194.298
48060,193.083
48120,-9999.000
48180,231.418
48240,225.240
48300,215.335
48360,208.086
48420,210.258
48480,207.990
48540,207.583
48600,202.427
48660,190.614
48720,191.753
48780,194.963
48840,196.492
48900,195.855
48960,190.383
49020,187.917
49080,192.671
49140,186.831
49200,191.513
49260,199.373
49320,200.126
49380,191.481
49440,194.649
49500,194.993
49560,208.507
49620,217.773
49680,221.856
49740,201.421
49800,205.813
49860,193.995
49920,186.729
49980,211.227
50040,208.506
50100,206.060
50160,212.794
50220,179.334
50280,181.228
50340,193.779
50400,200.000
50460,206.988
50520,211.549
50580,202.613
50640,217.399
50700,225.389
50760,217.979
50820,215.810
50880,233.604
50940,237.924
51000,234.536
51060,215.896
51120,215.924
51180,209.667
51240,195.690
51300,208.243
51360,217.675
51420,219.908
51480,209.361
51540,219.931
51600,240.956
51660,242.003
51720,237.686
51780,225.723
51840,233.533
51900,227.834
51960,227.177
52020,233.079
52080,238.116
52140,237.767
52200,237.495
52260,245.348
52320,256.919
52380,249.366
52440,255.821
52500,253.350
52560,252.573
52620,245.364
52680,251.646
52740,216.650
52800,223.681
52860,248.649
52920,259.137
52980,254.723
53040,244.156
53100,251.488
53160,253.778
53220,253.900
53280,252.628
53340,253.237
53400,247.922
53460,247.991
53520,254.702
53580,255.569
53640,255.739
53700,262.420
53760,261.896
53820,273.430
53880,280.083
53940,274.581
54000,275.542
54060,282.529
54120,283.683
54180,288.137
54240,290.605
54300,293.840
54360,287.635
54420,285.394
54480,298.892
54540,287.776
54600,283.213
54660,288.210
54720,281.516
54780,275.057
54840,275.184
54900,282.955
54960,276.435
55020,277.974
55080,278.477
55140,279.471
55200,281.300
55260,264.552
55320,265.993
55380,275.628
55440,281.307
55500,276.562
55560,296.475
55620,296.948
55680,294.821
55740,307.763
55800,311.690
55860,318.535
55920,315.510
55980,303.902
56040,304.279
56100,298.373
56160,295.407
56220,307.938
56280,306.639
56340,309.031
56400,303.602
56460,307.945
56520,308.429
56580,299.512
56640,295.992
56700,275.089
56760,288.378
56820,285.536
56880,293.350
56940,289.189
57000,292.487
57060,288.167
57120,291.204
57180,301.591
57240,293.013
57300,303.199
57360,308.299
57420,330.579
57480,335.445
57540,340.043
57600,347.523
57660,343.440
57720,350.736
57780,342.347
57840,343.735
57900,342.572
57960,345.247
58020,345.223
58080,346.454
58140,349.019
58200,341.309
58260,347.828
58320,343.020
58380,346.010
58440,341.558
58500,351.235
58560,345.788
58620,331.113
58680,327.096
58740,323.852
58800,321.820
58860,330.242
58920,331.165
58980,348.298
59040,347.636
59100,350.645
59160,349.964
59220,323.433
59280,347.982
59340,369.554
59400,374.221
59460,381.374
59520,385.756
59580,385.620
59640,375.676
59700,379.678
59760,362.232
59820,371.496
59880,375.035
59940,375.005
60000,369.027
60060,369.659
60120,362.551
60180,378.403
60240,365.607
60300,368.051
60360,374.390
60420,378.615
60480,364.996
60540,383.858
60600,370.776
60660,356.939
60720,360.396
60780,361.134
60840,374.480
60900,391.456
60960,397.314
61020,400.111
61080,404.211
61140,404.491
61200,412.372
61260,413.948
61320,423.778
61380,436.572
61440,432.964
61500,443.106
61560,492.366
61620,506.010
61680,489.529
61740,485.175
61800,493.628
61860,484.623
61920,478.841
61980,469.106
62040,480.072
62100,472.114
62160,472.672
62220,461.508
62280,476.515
62340,467.211
62400,450.504
62460,460.847
62520,522.831
62580,534.962
62640,541.895
62700,548.269
62760,553.174
62820,505.762
62880,498.080
62940,496.128
63000,557.733
63060,561.243
63120,544.458
63180,555.162
63240,572.501
63300,594.941
63360,611.927
63420,608.438
63480,592.578
63540,610.109
63600,629.589
63660,626.571
63720,626.942
63780,634.523
63840,638.273
63900,620.846
63960,686.006
64020,714.276
64080,733.801
64140,772.523
64200,769.802
64260,804.934
64320,856.599
64380,869.680
64440,906.084
64500,900.763
64560,896.149
64620,940.043
64680,941.483
64740,921.995
64800,849.060
64860,908.714
64920,931.202
64980,963.681
65040,991.871
65100,959.311
65160,966.097
65220,1030.799
65280,1049.573
65340,1070.807
65400,1087.655
65460,1009.547
65520,958.492
65580,890.804
65640,895.183
65700,946.556
65760,911.599
65820,890.021
65880,891.027
65940,910.001
66000,967.745
66060,921.494
66120,975.124
66180,1047.755
66240,1036.317
66300,987.859
66360,1048.288
66420,1123.412
66480,1173.418
66540,1167.892
66600,-9999.000
66660,928.302
66720,1032.288
66780,1043.963
66840,1068.151
66900,1049.925
66960,1087.172
67020,1054.160
67080,1052.750
67140,1115.689
67200,1165.646
67260,1195.024
67320,1213.450
67380,1207.053
67440,1204.181
67500,1205.297
67560,1226.894
67620,1209.491
67680,1193.856
67740,1221.119
67800,1235.617
67860,1243.746
67920,1203.180
67980,1158.086
68040,1191.245
68100,1197.831
68160,1197.993
68220,1206.762
68280,1199.968
68340,1217.591
68400,1211.295
68460,1001.107
68520,1082.620
68580,1159.598
68640,1243.287
68700,1292.018
68760,1326.219
68820,1342.828
68880,1309.063
68940,1296.650
69000,1275.515
69060,1228.997
69120,1313.944
69180,1366.094
69240,1341.890
69300,1251.885
69360,1200.776
69420,1223.806
69480,1301.711
69540,1342.770
69600,1346.071
69660,1186.588
69720,1113.887
69780,1240.409
69840,1167.987
69900,1107.796
69960,1087.779
70020,1009.994
70080,969.349
70140,944.177
70200,923.292
70260,923.986
70320,753.174
70380,818.130
70440,872.966
70500,879.852
70560,1015.372
70620,1152.415
70680,1160.895
70740,1215.601
70800,1236.594
70860,1401.093
70920,1291.984
70980,1244.053
71040,1308.601
71100,1324.555
71160,1402.375
71220,1337.927
71280,1382.548
71340,1471.788
71400,1514.777
71460,1464.574
71520,1571.247
71580,1568.753
71640,1391.014
71700,1334.752
71760,1412.390
71820,1529.510
71880,1581.897
71940,1686.967
72000,1836.672
72060,1815.651
72120,1674.916
72180,1542.096
72240,1638.533
72300,1632.716
72360,1713.597
72420,1747.567
72480,1582.909
72540,1502.201
72600,1434.950
72660,1490.566
72720,1726.538
72780,1744.398
72840,1639.535
72900,1697.303
72960,1702.006
73020,1915.950
73080,1956.269
73140,1894.608
73200,1769.234
73260,1638.603
73320,1688.452
73380,1758.451
73440,1917.959
73500,1721.632
73560,1652.919
73620,1744.912
73680,1809.437
73740,1769.814
73800,1822.100
73860,1899.618
73920,1950.381
73980,1922.302
74040,1548.921
74100,1530.176
74160,1399.619
74220,1629.074
74280,1628.451
74340,1478.046
74400,1490.152
74460,1493.297
74520,1557.578
74580,1594.654
74640,1655.050
74700,1785.699
74760,1822.885
74820,1752.768
74880,1831.945
74940,1751.852
75000,1789.392
75060,1734.369
75120,1703.250
75180,1698.205
75240,1705.572
75300,1645.324
75360,1576.549
75420,1438.797
75480,1472.804
75540,1409.021
75600,1368.472
75660,1369.188
75720,1384.205
75780,1516.710
75840,1369.291
75900,1383.306
75960,1541.568
76020,1750.253
76080,1786.579
76140,1701.213
76200,1770.786
76260,1834.146
76320,1843.598
76380,1917.150
76440,1923.624
76500,2005.410
76560,2001.893
76620,1922.199
76680,1946.965
76740,1822.074
76800,1814.742
76860,1856.496
76920,1870.985
76980,1871.917
77040,1818.513
77100,1714.097
77160,1644.360
77220,1589.914
77280,1617.757
77340,1637.915
77400,1643.505
77460,1559.321
77520,1644.176
77580,1549.239
77640,1593.966
77700,1088.801
77760,1485.782
77820,1634.425
77880,1733.733
77940,1860.273
78000,1873.939
78060,1885.512
78120,1945.171
78180,1927.573
78240,1828.644
78300,1889.135
78360,2024.109
78420,1943.583
78480,1706.930
78540,1775.172
78600,1773.190
78660,1819.055
78720,1810.564
78780,1854.895
78840,1916.117
78900,1921.491
78960,1775.025
79020,1930.637
79080,1908.450
79140,1826.288
79200,1782.869
79260,1783.570
79320,1756.242
79380,1775.009
79440,1668.714
79500,1794.931
79560,1414.662
79620,1477.898
79680,1599.114
79740,1700.941
79800,1633.814
79860,1625.435
79920,1527.572
79980,1526.682
80040,1459.386
80100,1356.876
80160,1430.740
80220,1422.689
80280,1391.018
80340,1375.242
80400,1498.921
80460,1576.250
80520,1704.384
80580,1730.558
80640,1674.077
80700,1685.288
80760,1762.577
80820,1747.757
80880,1742.505
80940,1672.607
81000,1678.859
81060,1740.019
81120,1813.220
81180,1830.118
81240,1677.678
81300,1634.706
81360,1573.854
81420,1208.948
81480,1382.652
81540,1411.351
81600,1429.374
81660,1371.926
81720,1341.067
81780,1269.405
81840,1293.457
81900,1318.509
81960,1293.856
82020,1211.944
82080,1237.930
82140,1277.898
82200,1267.861
82260,1297.486
82320,1258.601
82380,1364.276
82440,1419.582
82500,1411.283
82560,1312.650
82620,1385.718
82680,1381.029
82740,1476.785
82800,1432.368
82860,1381.677
82920,1418.237
82980,1466.212
83040,1540.559
83100,1520.704
83160,1470.218
83220,1439.114
83280,1302.690
83340,1477.483
83400,1533.879
83460,1442.836
83520,1444.632
83580,1387.093
83640,1337.593
83700,1307.446
83760,1153.415
83820,1117.464
83880,1172.763
83940,1167.330
84000,1319.288
84060,1440.990
84120,1457.875
84180,1496.081
84240,1405.134
84300,1458.125
84360,1559.057
84420,1553.308
84480,1534.915
84540,1510.876
84600,1367.935
84660,1244.847
84720,1298.173
84780,1418.449
84840,1356.880
84900,1453.205
84960,1368.190
85020,1448.148
85080,-9999.000
85140,1160.331
85200,1200.537
85260,1224.833
85320,1361.697
85380,1395.694
85440,1353.670
85500,1361.453
85560,1347.048
85620,1471.704
85680,1645.425
85740,1702.338
85800,1623.838
85860,1712.525
85920,1753.501
85980,1782.876
86040,1784.912
86100,1747.304
86160,1738.667
86220,1720.980
86280,1734.146
86340,1644.246
