33, 1001
Michael A Robinson, Chris Jernigan, Subi Thakali
NOAA ESRL Chemical Sciences Laboratory and CIRES, U. of Colorado
NOAA Iodide CIMS Instrument
USOS
1, 1
2024, 08, 03, 2024, 08, 04
1
starttime_UTC, seconds_past_midnight, seconds_of_day_since_00:00:00_UTC
1
1
-9999
HCOOH_NOAACIMS, pptv, Gas_HCOOH_InSitu_S_AVMR, 
0
18
PI_CONTACT_INFO: 325 Broadway, R/CSD 7, Boulder, Colorado 80305; michael.a.robinson@noaa.gov; chris.jernigan@noaa.gov;
PLATFORM: NOAA CSL Mobile Lab
LOCATION: SLC, Utah
ASSOCIATED_DATA: 1Hz data also available on request.
INSTRUMENT_INFO: NOAA I- ToF CIMS
DATA_INFO: All data in parts per trillion by volume (pptv). 1 Hz data is available upon request.
UNCERTAINTY: TBD
ULOD_FLAG: -7777
ULOD_VALUE: N/A
LLOD_FLAG: -8888
LLOD_VALUE: N/A
DM_CONTACT_INFO: Nathan Howard; nathan.h.howard@noaa.gov
PROJECT_INFO: USOS, summer 2024. https://csl.noaa.gov/groups/csl7/measurements/2024usos/
STIPULATIONS_ON_USE: Users are strongly encouraged to contact the PI for proper data usage.
OTHER_COMMENTS: 
REVISION: RA
RA: Preliminary Data; For in-field use only
starttime_UTC, HCOOH_NOAACIMS
     0, 1084.975
    60, 1104.789
   120, 1084.298
   180, 1049.846
   240, 1064.689
   300, 1137.636
   360, 1058.312
   420, 1096.680
   480, 1053.650
   540, -9999.000
   600, -9999.000
   660, -9999.000
   720, -9999.000
   780, -9999.000
   840, -9999.000
   900, -9999.000
   960, -9999.000
  1020, -9999.000
  1080, -9999.000
  1140, -9999.000
  1200, -9999.000
  1260, -9999.000
  1320, -9999.000
  1380, -9999.000
  1440, -9999.000
  1500, -9999.000
  1560, -9999.000
  1620, -9999.000
  1680, -9999.000
  1740, -9999.000
  1800, -9999.000
  1860, -9999.000
  1920, -9999.000
  1980, -9999.000
  2040, -9999.000
  2100, -9999.000
  2160, -9999.000
  2220, -9999.000
  2280, -9999.000
  2340, -9999.000
  2400, -9999.000
  2460, -9999.000
  2520, -9999.000
  2580, -9999.000
  2640, -9999.000
  2700, -9999.000
  2760, -9999.000
  2820, -9999.000
  2880, -9999.000
  2940, -9999.000
  3000, -9999.000
  3060, -9999.000
  3120, -9999.000
  3180, -9999.000
  3240, -9999.000
  3300, -9999.000
  3360, -9999.000
  3420, -9999.000
  3480, -9999.000
  3540, -9999.000
  3600, -9999.000
  3660, -9999.000
  3720, -9999.000
  3780, -9999.000
  3840, -9999.000
  3900, -9999.000
  3960, -9999.000
  4020, -9999.000
  4080, 740.242
  4140, 707.232
  4200, 702.275
  4260, 738.634
  4320, 811.875
  4380, 829.569
  4440, 788.345
  4500, 824.923
  4560, 822.943
  4620, 807.909
  4680, 817.065
  4740, 851.705
  4800, 827.330
  4860, 857.637
  4920, 934.865
  4980, 893.040
  5040, -9999.000
  5100, 958.913
  5160, 934.362
  5220, 988.978
  5280, 975.880
  5340, 981.590
  5400, 1044.118
  5460, 1054.854
  5520, 1052.989
  5580, 987.952
  5640, 1034.012
  5700, 1027.381
  5760, 1038.508
  5820, 1002.913
  5880, 1031.038
  5940, 1063.790
  6000, 1071.547
  6060, 1099.091
  6120, 1100.536
  6180, 1112.207
  6240, 1046.036
  6300, 1044.845
  6360, 1080.753
  6420, 1073.642
  6480, 1109.188
  6540, 1094.827
  6600, 1123.498
  6660, 1150.189
  6720, 1122.585
  6780, 1087.053
  6840, 1080.911
  6900, 1156.591
  6960, 1169.277
  7020, 1256.597
  7080, 1333.361
  7140, 1252.341
  7200, 1255.750
  7260, 1293.982
  7320, 1258.832
  7380, 1260.333
  7440, 1282.328
  7500, 1240.145
  7560, 1195.263
  7620, 1234.100
  7680, 1294.392
  7740, 1322.559
  7800, 1237.280
  7860, 1372.222
  7920, 1329.343
  7980, 1321.703
  8040, 1341.747
  8100, 1386.856
  8160, 1328.317
  8220, 1340.850
  8280, 1431.296
  8340, 1496.332
  8400, 1538.280
  8460, 1500.243
  8520, 1644.104
  8580, 1746.022
  8640, 1743.861
  8700, -9999.000
  8760, 1883.288
  8820, 1930.745
  8880, 2033.467
  8940, 2091.635
  9000, 2110.356
  9060, 2143.516
  9120, 2193.456
  9180, 2208.026
  9240, 2205.294
  9300, 2183.451
  9360, 2200.812
  9420, 2186.246
  9480, 2166.313
  9540, 2277.578
  9600, 2327.873
  9660, 2369.278
  9720, 2203.261
  9780, 2214.737
  9840, 2009.792
  9900, 2034.588
  9960, 2034.746
 10020, 2029.957
 10080, 2087.970
 10140, 2070.577
 10200, 2070.431
 10260, 2016.747
 10320, 2089.712
 10380, 2184.682
 10440, 2227.402
 10500, 2231.796
 10560, -9999.000
 10620, 2200.598
 10680, 2196.545
 10740, 2225.633
 10800, 2246.991
 10860, 2315.106
 10920, 2305.182
 10980, 2328.044
 11040, 2368.454
 11100, 2378.816
 11160, 2393.485
 11220, 2384.918
 11280, 2374.470
 11340, 2419.520
 11400, 2443.906
 11460, 2481.661
 11520, 2487.760
 11580, 2497.781
 11640, 2544.873
 11700, 2511.552
 11760, 2560.185
 11820, 2539.768
 11880, 2538.251
 11940, 2476.067
 12000, 2501.435
 12060, 2490.091
 12120, 2431.264
 12180, 2494.959
 12240, 2485.640
 12300, 2430.287
 12360, 2478.172
 12420, -9999.000
 12480, 2524.176
 12540, 2558.172
 12600, 2494.598
 12660, 2475.083
 12720, 2515.022
 12780, 2535.361
 12840, 2500.668
 12900, 2503.840
 12960, 2478.979
 13020, 2475.725
 13080, 2445.521
 13140, 2360.338
 13200, 2476.351
 13260, 2523.000
 13320, 2477.101
 13380, 2512.903
 13440, 2521.388
 13500, 2458.286
 13560, 2477.040
 13620, 2558.495
 13680, 2540.417
 13740, 2649.302
 13800, 2678.890
 13860, 2701.355
 13920, 2578.102
 13980, 2708.076
 14040, 2590.308
 14100, 2599.026
 14160, 2706.925
 14220, 2678.892
 14280, 2546.372
 14340, 2602.779
 14400, 2591.964
 14460, 2593.263
 14520, 2455.120
 14580, 2476.848
 14640, 2502.681
 14700, 2645.123
 14760, 2644.129
 14820, 2610.133
 14880, 2554.224
 14940, 2579.744
 15000, 2547.014
 15060, 2576.222
 15120, 2550.521
 15180, 2582.547
 15240, 2470.612
 15300, 2465.200
 15360, 2647.402
 15420, 2582.420
 15480, 2572.604
 15540, 2546.034
 15600, 2561.481
 15660, 2555.807
 15720, 2593.588
 15780, 2578.498
 15840, 2602.557
 15900, 2613.675
 15960, 2622.413
 16020, 2591.835
 16080, 2700.778
 16140, 2660.947
 16200, 2585.232
 16260, 2614.007
 16320, 2563.680
 16380, 2556.470
 16440, 2507.700
 16500, 2501.464
 16560, 2450.991
 16620, 2434.516
 16680, 2490.713
 16740, 2525.743
 16800, 2637.129
 16860, 2590.727
 16920, 2644.837
 16980, 2640.801
 17040, 2633.176
 17100, 2617.322
 17160, 2546.048
 17220, 2591.257
 17280, 2498.005
 17340, 2493.280
 17400, 2518.545
 17460, 2571.020
 17520, 2624.703
 17580, 2587.259
 17640, 2547.501
 17700, 2536.230
 17760, 2500.034
 17820, 2393.965
 17880, 2348.778
 17940, 2331.730
 18000, 2301.618
 18060, 2408.736
 18120, 2400.903
 18180, 2434.256
 18240, 2569.881
 18300, 2881.133
 18360, 2909.811
 18420, 2938.338
 18480, 2692.956
 18540, 2610.965
 18600, 2630.113
 18660, 2479.027
 18720, 2503.111
 18780, 2439.644
 18840, 2468.645
 18900, 2421.488
 18960, 2340.022
 19020, 2230.061
 19080, 2278.023
 19140, 2267.994
 19200, 2185.271
 19260, 2254.398
 19320, 2147.145
 19380, 2200.924
 19440, 2236.785
 19500, 2314.382
 19560, 2391.563
 19620, 2501.896
 19680, 2547.526
 19740, 2626.846
 19800, -9999.000
 19860, 2865.908
 19920, 2804.570
 19980, 2889.389
 20040, 2872.755
 20100, 2874.647
 20160, 2773.294
 20220, 2797.008
 20280, 2731.279
 20340, 2742.031
 20400, 2631.910
 20460, 2360.499
 20520, 2274.445
 20580, 2374.476
 20640, 2183.558
 20700, 2146.939
 20760, 2191.551
 20820, 2217.928
 20880, 2170.988
 20940, 2211.118
 21000, 2208.060
 21060, 2300.890
 21120, 2275.513
 21180, 2135.003
 21240, 2078.465
 21300, 2079.928
 21360, 2048.103
 21420, 2121.215
 21480, 2103.767
 21540, 2086.593
 21600, 2105.281
 21660, 2057.961
 21720, 2058.842
 21780, 2071.354
 21840, 2134.628
 21900, 2116.616
 21960, 2089.950
 22020, 2122.004
 22080, 2070.791
 22140, 2108.073
 22200, 2136.959
 22260, 2127.654
 22320, 2105.597
 22380, 2105.336
 22440, 2118.111
 22500, 2037.745
 22560, 2069.754
 22620, 1972.097
 22680, 2035.234
 22740, 2096.288
 22800, 2046.584
 22860, 2011.668
 22920, 1936.109
 22980, 1902.486
 23040, 1883.561
 23100, 1895.654
 23160, 1893.345
 23220, 1904.460
 23280, 1871.705
 23340, 1895.575
 23400, 1890.441
 23460, 1897.624
 23520, -9999.000
 23580, 1847.270
 23640, 1829.221
 23700, 1842.602
 23760, 1829.279
 23820, 1844.429
 23880, 1864.284
 23940, 1846.044
 24000, 1854.624
 24060, 1824.264
 24120, 1726.329
 24180, 1864.635
 24240, 1863.968
 24300, 1726.821
 24360, 1723.091
 24420, 1747.434
 24480, 1759.531
 24540, 1765.963
 24600, 1739.885
 24660, 1680.734
 24720, 1678.498
 24780, 1723.438
 24840, 1708.213
 24900, 1728.683
 24960, 1767.932
 25020, 1722.567
 25080, 1720.494
 25140, 1682.440
 25200, 1737.164
 25260, 1718.224
 25320, 1717.420
 25380, 1781.620
 25440, 1758.296
 25500, 1747.821
 25560, 1745.084
 25620, 1726.004
 25680, 1679.582
 25740, 1701.477
 25800, 1724.652
 25860, 1692.995
 25920, 1642.339
 25980, 1627.965
 26040, 1670.784
 26100, 1716.361
 26160, 1693.901
 26220, 1653.789
 26280, 1627.940
 26340, 1576.355
 26400, 1595.076
 26460, 1623.962
 26520, 1629.598
 26580, 1611.032
 26640, 1619.948
 26700, 1617.342
 26760, 1617.611
 26820, 1594.632
 26880, 1604.113
 26940, 1607.700
 27000, 1555.874
 27060, 1554.005
 27120, 1548.625
 27180, -9999.000
 27240, 1549.123
 27300, 1527.242
 27360, 1562.942
 27420, 1545.721
 27480, 1524.261
 27540, 1654.928
 27600, 1890.239
 27660, 2032.557
 27720, 2050.386
 27780, 2141.731
 27840, 2221.600
 27900, 2202.418
 27960, 2196.610
 28020, 2071.824
 28080, 2153.023
 28140, 2230.383
 28200, 2249.739
 28260, 2263.228
 28320, 2213.180
 28380, 2219.657
 28440, 2195.567
 28500, 2255.983
 28560, 2268.834
 28620, 2280.669
 28680, 2273.982
 28740, 2168.747
 28800, 2135.591
 28860, 2255.444
 28920, 2280.201
 28980, 2332.782
 29040, -9999.000
 29100, 2306.200
 29160, 2254.262
 29220, 2276.444
 29280, 2238.931
 29340, 2278.347
 29400, 2262.397
 29460, 2121.157
 29520, 1905.530
 29580, 1980.812
 29640, 1931.803
 29700, 1974.655
 29760, 1947.342
 29820, 2018.563
 29880, 2010.276
 29940, 1936.759
 30000, 1866.533
 30060, 1964.293
 30120, 1993.586
 30180, 2061.223
 30240, 2071.235
 30300, 2106.153
 30360, 2353.829
 30420, 2344.567
 30480, 2304.384
 30540, 2083.546
 30600, 2123.987
 30660, 2085.360
 30720, 2155.831
 30780, 2166.861
 30840, 2101.498
 30900, -9999.000
 30960, 2093.287
 31020, 2099.026
 31080, 2044.749
 31140, 2024.408
 31200, 2055.912
 31260, 2076.689
 31320, 2090.047
 31380, 2019.139
 31440, 1968.499
 31500, 2003.582
 31560, 2004.534
 31620, 2109.249
 31680, 2172.502
 31740, 2236.411
 31800, 2320.877
 31860, 2379.908
 31920, 2336.142
 31980, 2391.665
 32040, 2320.782
 32100, 2211.020
 32160, 2228.661
 32220, 2302.720
 32280, 2328.156
 32340, 2410.261
 32400, 2443.032
 32460, 2509.911
 32520, 2327.486
 32580, 2395.102
 32640, 2584.854
 32700, 2535.132
 32760, 2237.295
 32820, 2270.602
 32880, 2308.798
 32940, 2321.320
 33000, 2289.332
 33060, 2234.982
 33120, 2478.667
 33180, 2469.598
 33240, 2357.149
 33300, 2461.469
 33360, 2458.757
 33420, 2553.476
 33480, 2625.242
 33540, 2706.860
 33600, 2778.603
 33660, 2520.803
 33720, 2596.055
 33780, 2672.119
 33840, 2568.670
 33900, 2541.836
 33960, 2526.792
 34020, 2631.489
 34080, 2636.709
 34140, 2753.281
 34200, 2696.595
 34260, 2672.625
 34320, 2701.746
 34380, 2600.610
 34440, 2526.192
 34500, 2475.915
 34560, -9999.000
 34620, 2588.942
 34680, 2738.141
 34740, 2558.172
 34800, 2533.109
 34860, 2558.055
 34920, 2555.879
 34980, 2530.826
 35040, 2546.319
 35100, 2534.502
 35160, 2502.946
 35220, 2459.082
 35280, 2498.304
 35340, 2508.828
 35400, 2301.429
 35460, 2314.457
 35520, 2162.947
 35580, 1875.539
 35640, 1758.060
 35700, 1755.172
 35760, 1700.782
 35820, 1659.728
 35880, 1739.568
 35940, 1833.185
 36000, 1691.398
 36060, 1556.168
 36120, 1608.410
 36180, 1724.768
 36240, 1811.405
 36300, 1607.791
 36360, 1685.520
 36420, 1875.671
 36480, 1932.310
 36540, 1905.548
 36600, 1819.129
 36660, 1834.353
 36720, 1759.309
 36780, 1732.504
 36840, 1726.709
 36900, 1697.066
 36960, 1782.993
 37020, 1852.698
 37080, 1779.525
 37140, 1769.943
 37200, 1855.600
 37260, 1848.941
 37320, 1844.855
 37380, 1856.648
 37440, 1881.088
 37500, 1896.212
 37560, 1869.546
 37620, 2043.632
 37680, 2000.681
 37740, 2026.244
 37800, 1956.319
 37860, 2024.231
 37920, 2038.184
 37980, 1895.689
 38040, 1932.702
 38100, 1975.162
 38160, 1988.241
 38220, 1945.789
 38280, -9999.000
 38340, 1881.612
 38400, 1812.811
 38460, 1908.852
 38520, 1919.964
 38580, 1843.906
 38640, 1745.874
 38700, 1766.415
 38760, 1808.270
 38820, 1856.063
 38880, 1839.378
 38940, 1917.727
 39000, 1879.460
 39060, 1873.964
 39120, 1771.716
 39180, 1765.059
 39240, 1772.101
 39300, 1965.069
 39360, 1972.597
 39420, 1896.419
 39480, 1867.871
 39540, 1875.848
 39600, 1810.044
 39660, 1783.665
 39720, 2006.906
 39780, 2010.560
 39840, 1926.172
 39900, 1995.328
 39960, 1948.310
 40020, 1926.808
 40080, 2004.985
 40140, 2022.911
 40200, 2062.310
 40260, 2131.236
 40320, 2030.901
 40380, 2052.469
 40440, 2092.532
 40500, 2011.602
 40560, 1978.218
 40620, 2068.345
 40680, 2083.843
 40740, 2121.603
 40800, 2119.303
 40860, 2206.389
 40920, 2072.389
 40980, 2121.478
 41040, 2084.978
 41100, 2027.932
 41160, 2135.373
 41220, 2214.407
 41280, 2145.761
 41340, 2131.254
 41400, 2177.476
 41460, 2195.157
 41520, 2239.616
 41580, 2217.470
 41640, 2142.686
 41700, 2277.763
 41760, 2255.897
 41820, 2258.735
 41880, 2245.607
 41940, 2175.332
 42000, -9999.000
 42060, 2404.487
 42120, 2365.660
 42180, 2399.545
 42240, 2401.739
 42300, 2390.200
 42360, 2320.772
 42420, 2319.824
 42480, 2329.522
 42540, 2343.975
 42600, 2304.935
 42660, 2391.778
 42720, 2397.607
 42780, 2420.686
 42840, 2440.042
 42900, 2414.089
 42960, 2414.371
 43020, 2451.097
 43080, 2460.799
 43140, 2420.974
 43200, 2366.562
 43260, 2428.360
 43320, 2470.662
 43380, 2503.893
 43440, 2498.722
 43500, 2485.068
 43560, 2514.873
 43620, 2604.345
 43680, 2588.028
 43740, 2439.129
 43800, 2485.533
 43860, 2404.078
 43920, 2399.812
 43980, 2449.119
 44040, 2477.851
 44100, 2505.794
 44160, 2477.820
 44220, 2498.924
 44280, 2489.279
 44340, 2536.054
 44400, 2545.643
 44460, 2523.246
 44520, 2580.744
 44580, 2447.447
 44640, 2448.293
 44700, 2392.569
 44760, 2332.950
 44820, 2369.550
 44880, 2408.208
 44940, 2371.784
 45000, 2474.231
 45060, 2423.025
 45120, 2411.864
 45180, 2052.675
 45240, 2162.170
 45300, 2280.133
 45360, 2275.377
 45420, 2274.269
 45480, 2129.829
 45540, 2214.397
 45600, 2208.038
 45660, -9999.000
 45720, 2116.371
 45780, 2089.413
 45840, 2130.727
 45900, 2072.741
 45960, 1932.870
 46020, 1920.872
 46080, 1968.576
 46140, 1981.128
 46200, 2032.288
 46260, 1986.419
 46320, 1969.389
 46380, 1937.205
 46440, 1821.895
 46500, 1841.110
 46560, 1781.533
 46620, 1824.811
 46680, 1850.390
 46740, 1859.232
 46800, 2128.000
 46860, 2506.453
 46920, 2461.392
 46980, 2419.671
 47040, 2363.473
 47100, 2262.105
 47160, 2175.386
 47220, 1984.044
 47280, 1906.084
 47340, 1822.892
 47400, 1850.059
 47460, 1879.200
 47520, -9999.000
 47580, 1900.832
 47640, 1922.963
 47700, 2029.849
 47760, 1913.882
 47820, 1928.382
 47880, 1964.375
 47940, 1796.445
 48000, 1735.468
 48060, 1693.386
 48120, 1905.712
 48180, 2018.845
 48240, 1823.440
 48300, 1684.990
 48360, 1743.936
 48420, 1758.253
 48480, 1647.726
 48540, 1723.791
 48600, 1785.508
 48660, 2012.869
 48720, 2508.005
 48780, 2072.192
 48840, 1956.927
 48900, 1950.569
 48960, 1815.890
 49020, 1658.103
 49080, 1650.491
 49140, 1649.376
 49200, 1752.439
 49260, 1652.266
 49320, 1598.525
 49380, -9999.000
 49440, 1672.751
 49500, 1633.594
 49560, -9999.000
 49620, -9999.000
 49680, -9999.000
 49740, -9999.000
 49800, -9999.000
 49860, -9999.000
 49920, -9999.000
 49980, -9999.000
 50040, -9999.000
 50100, -9999.000
 50160, -9999.000
 50220, -9999.000
 50280, -9999.000
 50340, -9999.000
 50400, -9999.000
 50460, -9999.000
 50520, -9999.000
 50580, -9999.000
 50640, -9999.000
 50700, -9999.000
 50760, -9999.000
 50820, -9999.000
 50880, -9999.000
 50940, -9999.000
 51000, -9999.000
 51060, -9999.000
 51120, -9999.000
 51180, -9999.000
 51240, -9999.000
 51300, -9999.000
 51360, -9999.000
 51420, -9999.000
 51480, -9999.000
 51540, -9999.000
 51600, -9999.000
 51660, -9999.000
 51720, -9999.000
 51780, -9999.000
 51840, -9999.000
 51900, -9999.000
 51960, -9999.000
 52020, -9999.000
 52080, -9999.000
 52140, -9999.000
 52200, -9999.000
 52260, -9999.000
 52320, -9999.000
 52380, -9999.000
 52440, -9999.000
 52500, -9999.000
 52560, -9999.000
 52620, -9999.000
 52680, -9999.000
 52740, -9999.000
 52800, -9999.000
 52860, -9999.000
 52920, -9999.000
 52980, -9999.000
 53040, -9999.000
 53100, -9999.000
 53160, -9999.000
 53220, -9999.000
 53280, -9999.000
 53340, -9999.000
 53400, -9999.000
 53460, -9999.000
 53520, -9999.000
 53580, -9999.000
 53640, -9999.000
 53700, -9999.000
 53760, -9999.000
 53820, -9999.000
 53880, -9999.000
 53940, -9999.000
 54000, -9999.000
 54060, -9999.000
 54120, -9999.000
 54180, -9999.000
 54240, -9999.000
 54300, -9999.000
 54360, -9999.000
 54420, -9999.000
 54480, -9999.000
 54540, -9999.000
 54600, -9999.000
 54660, -9999.000
 54720, -9999.000
 54780, -9999.000
 54840, -9999.000
 54900, -9999.000
 54960, -9999.000
 55020, -9999.000
 55080, -9999.000
 55140, -9999.000
 55200, -9999.000
 55260, -9999.000
 55320, -9999.000
 55380, -9999.000
 55440, -9999.000
 55500, -9999.000
 55560, -9999.000
 55620, -9999.000
 55680, -9999.000
 55740, -9999.000
 55800, -9999.000
 55860, -9999.000
 55920, -9999.000
 55980, -9999.000
 56040, -9999.000
 56100, -9999.000
 56160, -9999.000
 56220, -9999.000
 56280, -9999.000
 56340, -9999.000
 56400, -9999.000
 56460, -9999.000
 56520, -9999.000
 56580, -9999.000
 56640, -9999.000
 56700, -9999.000
 56760, -9999.000
 56820, -9999.000
 56880, -9999.000
 56940, -9999.000
 57000, -9999.000
 57060, -9999.000
 57120, -9999.000
 57180, -9999.000
 57240, -9999.000
 57300, -9999.000
 57360, -9999.000
 57420, -9999.000
 57480, -9999.000
 57540, -9999.000
 57600, -9999.000
 57660, -9999.000
 57720, -9999.000
 57780, -9999.000
 57840, -9999.000
 57900, -9999.000
 57960, -9999.000
 58020, -9999.000
 58080, -9999.000
 58140, -9999.000
 58200, -9999.000
 58260, -9999.000
 58320, -9999.000
 58380, -9999.000
 58440, -9999.000
 58500, -9999.000
 58560, -9999.000
 58620, -9999.000
 58680, -9999.000
 58740, -9999.000
 58800, -9999.000
 58860, -9999.000
 58920, -9999.000
 58980, -9999.000
 59040, -9999.000
 59100, -9999.000
 59160, -9999.000
 59220, -9999.000
 59280, -9999.000
 59340, -9999.000
 59400, -9999.000
 59460, -9999.000
 59520, -9999.000
 59580, -9999.000
 59640, -9999.000
 59700, -9999.000
 59760, -9999.000
 59820, -9999.000
 59880, -9999.000
 59940, -9999.000
 60000, -9999.000
 60060, -9999.000
 60120, -9999.000
 60180, -9999.000
 60240, -9999.000
 60300, -9999.000
 60360, -9999.000
 60420, -9999.000
 60480, -9999.000
 60540, -9999.000
 60600, -9999.000
 60660, -9999.000
 60720, -9999.000
 60780, -9999.000
 60840, -9999.000
 60900, -9999.000
 60960, -9999.000
 61020, -9999.000
 61080, -9999.000
 61140, -9999.000
 61200, -9999.000
 61260, -9999.000
 61320, -9999.000
 61380, -9999.000
 61440, -9999.000
 61500, -9999.000
 61560, -9999.000
 61620, -9999.000
 61680, -9999.000
 61740, -9999.000
 61800, -9999.000
 61860, -9999.000
 61920, -9999.000
 61980, -9999.000
 62040, -9999.000
 62100, -9999.000
 62160, -9999.000
 62220, -9999.000
 62280, -9999.000
 62340, -9999.000
 62400, -9999.000
 62460, -9999.000
 62520, -9999.000
 62580, -9999.000
 62640, -9999.000
 62700, -9999.000
 62760, -9999.000
 62820, -9999.000
 62880, -9999.000
 62940, -9999.000
 63000, -9999.000
 63060, -9999.000
 63120, -9999.000
 63180, -9999.000
 63240, -9999.000
 63300, -9999.000
 63360, -9999.000
 63420, -9999.000
 63480, -9999.000
 63540, -9999.000
 63600, -9999.000
 63660, -9999.000
 63720, -9999.000
 63780, -9999.000
 63840, -9999.000
 63900, -9999.000
 63960, -9999.000
 64020, -9999.000
 64080, -9999.000
 64140, -9999.000
 64200, -9999.000
 64260, -9999.000
 64320, -9999.000
 64380, -9999.000
 64440, -9999.000
 64500, -9999.000
 64560, -9999.000
 64620, -9999.000
 64680, -9999.000
 64740, -9999.000
 64800, -9999.000
 64860, -9999.000
 64920, -9999.000
 64980, -9999.000
 65040, -9999.000
 65100, -9999.000
 65160, -9999.000
 65220, -9999.000
 65280, -9999.000
 65340, -9999.000
 65400, -9999.000
 65460, -9999.000
 65520, -9999.000
 65580, -9999.000
 65640, -9999.000
 65700, -9999.000
 65760, -9999.000
 65820, -9999.000
 65880, -9999.000
 65940, -9999.000
 66000, -9999.000
 66060, -9999.000
 66120, -9999.000
 66180, -9999.000
 66240, -9999.000
 66300, -9999.000
 66360, -9999.000
 66420, -9999.000
 66480, -9999.000
 66540, -9999.000
 66600, -9999.000
 66660, -9999.000
 66720, -9999.000
 66780, -9999.000
 66840, -9999.000
 66900, -9999.000
 66960, -9999.000
 67020, -9999.000
 67080, -9999.000
 67140, -9999.000
 67200, -9999.000
 67260, -9999.000
 67320, -9999.000
 67380, -9999.000
 67440, -9999.000
 67500, -9999.000
 67560, -9999.000
 67620, -9999.000
 67680, -9999.000
 67740, -9999.000
 67800, -9999.000
 67860, -9999.000
 67920, -9999.000
 67980, -9999.000
 68040, -9999.000
 68100, -9999.000
 68160, -9999.000
 68220, -9999.000
 68280, -9999.000
 68340, -9999.000
 68400, -9999.000
 68460, -9999.000
 68520, -9999.000
 68580, -9999.000
 68640, -9999.000
 68700, -9999.000
 68760, -9999.000
 68820, -9999.000
 68880, -9999.000
 68940, -9999.000
 69000, -9999.000
 69060, -9999.000
 69120, -9999.000
 69180, -9999.000
 69240, -9999.000
 69300, -9999.000
 69360, -9999.000
 69420, -9999.000
 69480, -9999.000
 69540, -9999.000
 69600, -9999.000
 69660, -9999.000
 69720, -9999.000
 69780, -9999.000
 69840, -9999.000
 69900, -9999.000
 69960, -9999.000
 70020, -9999.000
 70080, -9999.000
 70140, -9999.000
 70200, -9999.000
 70260, -9999.000
 70320, -9999.000
 70380, -9999.000
 70440, -9999.000
 70500, -9999.000
 70560, -9999.000
 70620, -9999.000
 70680, -9999.000
 70740, -9999.000
 70800, -9999.000
 70860, -9999.000
 70920, -9999.000
 70980, -9999.000
 71040, -9999.000
 71100, -9999.000
 71160, -9999.000
 71220, -9999.000
 71280, -9999.000
 71340, -9999.000
 71400, -9999.000
 71460, -9999.000
 71520, -9999.000
 71580, -9999.000
 71640, -9999.000
 71700, -9999.000
 71760, -9999.000
 71820, -9999.000
 71880, -9999.000
 71940, -9999.000
 72000, -9999.000
 72060, -9999.000
 72120, -9999.000
 72180, -9999.000
 72240, -9999.000
 72300, -9999.000
 72360, -9999.000
 72420, -9999.000
 72480, -9999.000
 72540, -9999.000
 72600, -9999.000
 72660, -9999.000
 72720, -9999.000
 72780, -9999.000
 72840, -9999.000
 72900, -9999.000
 72960, -9999.000
 73020, -9999.000
 73080, -9999.000
 73140, -9999.000
 73200, -9999.000
 73260, -9999.000
 73320, -9999.000
 73380, -9999.000
 73440, -9999.000
 73500, -9999.000
 73560, -9999.000
 73620, -9999.000
 73680, -9999.000
 73740, -9999.000
 73800, -9999.000
 73860, -9999.000
 73920, -9999.000
 73980, -9999.000
 74040, -9999.000
 74100, -9999.000
 74160, -9999.000
 74220, -9999.000
 74280, -9999.000
 74340, -9999.000
 74400, -9999.000
 74460, -9999.000
 74520, -9999.000
 74580, -9999.000
 74640, -9999.000
 74700, -9999.000
 74760, -9999.000
 74820, -9999.000
 74880, 960.471
 74940, -9999.000
 75000, 982.383
 75060, 976.203
 75120, 1045.568
 75180, 973.676
 75240, 996.636
 75300, 962.221
 75360, 957.336
 75420, 928.086
 75480, 875.236
 75540, 849.762
 75600, 826.614
 75660, 912.309
 75720, 887.413
 75780, 920.300
 75840, 897.796
 75900, 883.063
 75960, 876.000
 76020, 892.791
 76080, 905.562
 76140, 886.124
 76200, 884.505
 76260, 938.560
 76320, 935.918
 76380, 1040.043
 76440, 964.122
 76500, 880.388
 76560, 837.709
 76620, 835.774
 76680, 898.934
 76740, 973.974
 76800, -9999.000
 76860, 807.658
 76920, 816.444
 76980, 791.068
 77040, 831.974
 77100, 823.237
 77160, 787.268
 77220, 796.446
 77280, 840.489
 77340, 819.737
 77400, 801.655
 77460, 803.728
 77520, 850.798
 77580, 797.085
 77640, 817.537
 77700, 810.003
 77760, 790.965
 77820, 780.187
 77880, 826.485
 77940, 873.049
 78000, 916.406
 78060, 892.354
 78120, 889.488
 78180, 926.272
 78240, 885.432
 78300, 904.052
 78360, 836.636
 78420, 865.916
 78480, 829.978
 78540, 800.683
 78600, 797.906
 78660, 825.534
 78720, 861.880
 78780, 864.862
 78840, 870.303
 78900, 871.907
 78960, 846.547
 79020, 846.515
 79080, 860.618
 79140, 837.783
 79200, 859.232
 79260, 865.160
 79320, 855.098
 79380, 823.653
 79440, 838.242
 79500, 823.886
 79560, 840.950
 79620, 872.421
 79680, 931.376
 79740, 833.267
 79800, 837.199
 79860, 830.987
 79920, 805.322
 79980, 816.790
 80040, 870.303
 80100, 884.298
 80160, 840.756
 80220, 890.363
 80280, 881.050
 80340, 838.464
 80400, 838.098
 80460, -9999.000
 80520, 779.360
 80580, 787.745
 80640, 790.293
 80700, 800.299
 80760, 780.496
 80820, 754.829
 80880, 786.018
 80940, 848.594
 81000, 859.327
 81060, 857.860
 81120, 927.104
 81180, 903.513
 81240, 865.960
 81300, 852.739
 81360, 804.855
 81420, 789.589
 81480, 812.968
 81540, 849.936
 81600, 800.388
 81660, 769.491
 81720, 805.385
 81780, 785.520
 81840, 815.320
 81900, 780.908
 81960, 765.806
 82020, 845.945
 82080, 934.576
 82140, 980.761
 82200, 963.965
 82260, 943.741
 82320, -9999.000
 82380, 788.647
 82440, 812.477
 82500, -9999.000
 82560, -9999.000
 82620, -9999.000
 82680, -9999.000
 82740, -9999.000
 82800, -9999.000
 82860, -9999.000
 82920, -9999.000
 82980, -9999.000
 83040, -9999.000
 83100, -9999.000
 83160, -9999.000
 83220, -9999.000
 83280, -9999.000
 83340, -9999.000
 83400, -9999.000
 83460, -9999.000
 83520, -9999.000
 83580, -9999.000
 83640, -9999.000
 83700, -9999.000
 83760, -9999.000
 83820, -9999.000
 83880, -9999.000
 83940, -9999.000
 84000, -9999.000
 84060, -9999.000
 84120, -9999.000
 84180, -9999.000
 84240, -9999.000
 84300, -9999.000
 84360, -9999.000
 84420, -9999.000
 84480, -9999.000
 84540, -9999.000
 84600, -9999.000
 84660, -9999.000
 84720, -9999.000
 84780, -9999.000
 84840, -9999.000
 84900, -9999.000
 84960, -9999.000
 85020, -9999.000
 85080, -9999.000
 85140, -9999.000
 85200, -9999.000
 85260, -9999.000
 85320, -9999.000
 85380, -9999.000
 85440, -9999.000
 85500, -9999.000
 85560, -9999.000
 85620, -9999.000
 85680, -9999.000
 85740, -9999.000
 85800, -9999.000
 85860, -9999.000
 85920, -9999.000
 85980, -9999.000
 86040, -9999.000
 86100, -9999.000
 86160, -9999.000
 86220, -9999.000
 86280, -9999.000
 86340, -9999.000
