33, 1001
Michael A Robinson, Chris Jernigan, Subi Thakali
NOAA ESRL Chemical Sciences Laboratory and CIRES, U. of Colorado
NOAA Iodide CIMS Instrument
USOS
1, 1
2024, 08, 03, 2024, 08, 04
1
starttime_UTC, seconds_past_midnight, seconds_of_day_since_00:00:00_UTC
1
1
-9999
HNO3_NOAACIMS, pptv, Gas_HNO3_InSitu_S_AVMR, 
0
18
PI_CONTACT_INFO: 325 Broadway, R/CSD 7, Boulder, Colorado 80305; michael.a.robinson@noaa.gov; chris.jernigan@noaa.gov;
PLATFORM: NOAA CSL Mobile Lab
LOCATION: SLC, Utah
ASSOCIATED_DATA: 1Hz data also available on request.
INSTRUMENT_INFO: NOAA I- ToF CIMS
DATA_INFO: All data in parts per trillion by volume (pptv). 1 Hz data is available upon request.
UNCERTAINTY: TBD
ULOD_FLAG: -7777
ULOD_VALUE: N/A
LLOD_FLAG: -8888
LLOD_VALUE: N/A
DM_CONTACT_INFO: Nathan Howard; nathan.h.howard@noaa.gov
PROJECT_INFO: USOS, summer 2024. https://csl.noaa.gov/groups/csl7/measurements/2024usos/
STIPULATIONS_ON_USE: Users are strongly encouraged to contact the PI for proper data usage.
OTHER_COMMENTS: 
REVISION: RA
RA: Preliminary Data; For in-field use only
starttime_UTC, HNO3_NOAACIMS
     0, 663.194
    60, 682.653
   120, 674.896
   180, 653.130
   240, 675.777
   300, 657.459
   360, 658.254
   420, 663.891
   480, 639.380
   540, -9999.000
   600, -9999.000
   660, -9999.000
   720, -9999.000
   780, -9999.000
   840, -9999.000
   900, -9999.000
   960, -9999.000
  1020, -9999.000
  1080, -9999.000
  1140, -9999.000
  1200, -9999.000
  1260, -9999.000
  1320, -9999.000
  1380, -9999.000
  1440, -9999.000
  1500, -9999.000
  1560, -9999.000
  1620, -9999.000
  1680, -9999.000
  1740, -9999.000
  1800, -9999.000
  1860, -9999.000
  1920, -9999.000
  1980, -9999.000
  2040, -9999.000
  2100, -9999.000
  2160, -9999.000
  2220, -9999.000
  2280, -9999.000
  2340, -9999.000
  2400, -9999.000
  2460, -9999.000
  2520, -9999.000
  2580, -9999.000
  2640, -9999.000
  2700, -9999.000
  2760, -9999.000
  2820, -9999.000
  2880, -9999.000
  2940, -9999.000
  3000, -9999.000
  3060, -9999.000
  3120, -9999.000
  3180, -9999.000
  3240, -9999.000
  3300, -9999.000
  3360, -9999.000
  3420, -9999.000
  3480, -9999.000
  3540, -9999.000
  3600, -9999.000
  3660, -9999.000
  3720, -9999.000
  3780, -9999.000
  3840, -9999.000
  3900, -9999.000
  3960, -9999.000
  4020, -9999.000
  4080, 597.262
  4140, 585.934
  4200, 568.544
  4260, 575.036
  4320, 561.423
  4380, 547.748
  4440, 524.354
  4500, 522.031
  4560, 513.008
  4620, 504.362
  4680, 503.671
  4740, 492.938
  4800, 484.344
  4860, 492.991
  4920, 463.965
  4980, 457.306
  5040, -9999.000
  5100, 398.032
  5160, 401.953
  5220, 416.013
  5280, 421.317
  5340, 429.383
  5400, 427.019
  5460, 423.734
  5520, 443.125
  5580, 436.543
  5640, 453.962
  5700, 448.124
  5760, 433.165
  5820, 441.001
  5880, 463.608
  5940, 454.197
  6000, 450.655
  6060, 459.734
  6120, 441.696
  6180, 448.536
  6240, 469.752
  6300, 480.254
  6360, 493.881
  6420, 469.524
  6480, 476.606
  6540, 474.937
  6600, 468.996
  6660, 460.158
  6720, 463.985
  6780, 459.282
  6840, 459.476
  6900, 425.987
  6960, 431.915
  7020, 439.888
  7080, 446.277
  7140, 443.781
  7200, 441.883
  7260, 440.144
  7320, 447.794
  7380, 443.860
  7440, 436.391
  7500, 436.945
  7560, 445.918
  7620, 452.832
  7680, 437.462
  7740, 414.431
  7800, 421.262
  7860, 412.587
  7920, 392.315
  7980, 398.095
  8040, 414.558
  8100, 404.357
  8160, 393.999
  8220, 407.076
  8280, 418.874
  8340, 421.872
  8400, 432.581
  8460, 422.074
  8520, 406.394
  8580, 373.329
  8640, 358.124
  8700, -9999.000
  8760, 306.665
  8820, 292.102
  8880, 281.415
  8940, 253.131
  9000, 248.620
  9060, 255.768
  9120, 261.987
  9180, 262.880
  9240, 266.213
  9300, 273.349
  9360, 287.111
  9420, 285.861
  9480, 280.172
  9540, 296.398
  9600, 277.434
  9660, 254.316
  9720, 261.071
  9780, 283.873
  9840, 303.766
  9900, 330.211
  9960, 342.892
 10020, 350.012
 10080, 360.020
 10140, 360.236
 10200, 362.644
 10260, 365.629
 10320, 378.743
 10380, 376.706
 10440, 367.421
 10500, 364.626
 10560, -9999.000
 10620, 340.290
 10680, 333.953
 10740, 324.442
 10800, 324.792
 10860, 327.606
 10920, 328.545
 10980, 332.838
 11040, 333.382
 11100, 331.031
 11160, 334.480
 11220, 333.820
 11280, 335.413
 11340, 336.032
 11400, 342.207
 11460, 346.166
 11520, 346.012
 11580, 342.853
 11640, 334.700
 11700, 329.701
 11760, 324.646
 11820, 318.286
 11880, 311.823
 11940, 323.082
 12000, 324.090
 12060, 320.098
 12120, 319.149
 12180, 317.178
 12240, 320.408
 12300, 316.256
 12360, 315.636
 12420, -9999.000
 12480, 302.221
 12540, 300.423
 12600, 301.713
 12660, 306.986
 12720, 309.529
 12780, 296.342
 12840, 284.695
 12900, 277.652
 12960, 270.327
 13020, 278.335
 13080, 277.265
 13140, 272.221
 13200, 275.912
 13260, 275.922
 13320, 276.644
 13380, 274.794
 13440, 273.971
 13500, 270.757
 13560, 273.800
 13620, 266.481
 13680, 269.756
 13740, 281.074
 13800, 290.598
 13860, 291.704
 13920, 286.579
 13980, 285.748
 14040, 274.749
 14100, 275.890
 14160, 276.943
 14220, 271.662
 14280, 250.445
 14340, 250.767
 14400, 251.474
 14460, 255.183
 14520, 269.527
 14580, 286.426
 14640, 289.146
 14700, 303.089
 14760, 294.939
 14820, 282.720
 14880, 276.882
 14940, 269.488
 15000, 265.205
 15060, 269.889
 15120, 266.932
 15180, 276.269
 15240, 288.650
 15300, 285.227
 15360, 283.662
 15420, 284.144
 15480, 281.413
 15540, 280.675
 15600, 278.108
 15660, 268.663
 15720, 262.988
 15780, 256.554
 15840, 266.841
 15900, 270.800
 15960, 267.475
 16020, 265.896
 16080, 270.201
 16140, 259.318
 16200, 250.133
 16260, 248.251
 16320, 242.658
 16380, 250.794
 16440, 250.512
 16500, 259.851
 16560, 264.976
 16620, 264.440
 16680, 263.687
 16740, 266.066
 16800, 257.335
 16860, 234.969
 16920, 212.107
 16980, 194.375
 17040, 191.338
 17100, 190.884
 17160, 203.901
 17220, 205.200
 17280, 204.773
 17340, 215.866
 17400, 226.652
 17460, 223.414
 17520, 215.521
 17580, 200.233
 17640, 182.615
 17700, 187.570
 17760, 200.624
 17820, 197.648
 17880, 202.304
 17940, 215.288
 18000, 209.483
 18060, 227.679
 18120, 229.475
 18180, 225.833
 18240, 216.482
 18300, 211.381
 18360, 217.900
 18420, 215.867
 18480, 202.428
 18540, 174.501
 18600, 154.165
 18660, 146.803
 18720, 164.022
 18780, 184.036
 18840, 203.604
 18900, 213.293
 18960, 223.343
 19020, 227.534
 19080, 232.663
 19140, 231.515
 19200, 223.789
 19260, 211.434
 19320, 216.238
 19380, 235.053
 19440, 248.695
 19500, 256.927
 19560, 253.385
 19620, 244.033
 19680, 228.065
 19740, 221.050
 19800, -9999.000
 19860, 199.337
 19920, 198.523
 19980, 205.700
 20040, 209.923
 20100, 205.241
 20160, 192.348
 20220, 190.291
 20280, 186.374
 20340, 182.934
 20400, 181.069
 20460, 176.162
 20520, 187.372
 20580, 200.881
 20640, 179.794
 20700, 178.288
 20760, 183.091
 20820, 183.636
 20880, 182.675
 20940, 198.344
 21000, 215.974
 21060, 227.772
 21120, 206.435
 21180, 204.698
 21240, 214.582
 21300, 222.316
 21360, 225.582
 21420, 229.692
 21480, 238.758
 21540, 242.841
 21600, 250.970
 21660, 237.379
 21720, 241.255
 21780, 242.359
 21840, 244.805
 21900, 244.875
 21960, 259.392
 22020, 269.902
 22080, 269.959
 22140, 269.675
 22200, 264.261
 22260, 257.156
 22320, 252.444
 22380, 250.327
 22440, 243.018
 22500, 241.959
 22560, 257.394
 22620, 253.611
 22680, 249.267
 22740, 245.837
 22800, 237.043
 22860, 226.912
 22920, 205.963
 22980, 206.469
 23040, 226.552
 23100, 241.558
 23160, 248.000
 23220, 249.291
 23280, 239.222
 23340, 240.090
 23400, 244.086
 23460, 241.192
 23520, -9999.000
 23580, 218.639
 23640, 236.200
 23700, 250.855
 23760, 257.702
 23820, 255.428
 23880, 250.232
 23940, 241.424
 24000, 233.974
 24060, 231.467
 24120, 224.052
 24180, 242.190
 24240, 238.913
 24300, 241.043
 24360, 253.545
 24420, 253.411
 24480, 252.350
 24540, 254.976
 24600, 249.353
 24660, 246.726
 24720, 245.017
 24780, 250.691
 24840, 264.722
 24900, 265.551
 24960, 271.263
 25020, 263.054
 25080, 260.048
 25140, 261.824
 25200, 269.743
 25260, 264.518
 25320, 263.666
 25380, 240.052
 25440, 238.165
 25500, 240.088
 25560, 243.328
 25620, 248.054
 25680, 257.007
 25740, 255.527
 25800, 244.786
 25860, 226.038
 25920, 233.164
 25980, 239.580
 26040, 255.975
 26100, 247.170
 26160, 232.836
 26220, 238.669
 26280, 257.602
 26340, 257.221
 26400, 249.894
 26460, 236.435
 26520, 234.502
 26580, 238.559
 26640, 236.919
 26700, 225.554
 26760, 223.419
 26820, 235.820
 26880, 237.659
 26940, 249.844
 27000, 242.651
 27060, 208.121
 27120, 207.507
 27180, -9999.000
 27240, 202.280
 27300, 202.976
 27360, 211.734
 27420, 215.490
 27480, 196.524
 27540, 208.589
 27600, 225.563
 27660, 222.125
 27720, 215.334
 27780, 203.520
 27840, 199.726
 27900, 195.057
 27960, 191.275
 28020, 173.504
 28080, 178.224
 28140, 183.719
 28200, 198.512
 28260, 205.449
 28320, 204.062
 28380, 203.296
 28440, 190.872
 28500, 186.893
 28560, 184.138
 28620, 174.411
 28680, 172.071
 28740, 180.653
 28800, 197.601
 28860, 204.158
 28920, 205.477
 28980, 201.744
 29040, -9999.000
 29100, 188.425
 29160, 192.275
 29220, 199.992
 29280, 205.243
 29340, 193.544
 29400, 165.606
 29460, 163.252
 29520, 167.307
 29580, 185.381
 29640, 191.413
 29700, 199.189
 29760, 202.452
 29820, 206.154
 29880, 197.622
 29940, 199.118
 30000, 208.822
 30060, 222.225
 30120, 222.523
 30180, 229.015
 30240, 246.193
 30300, 254.549
 30360, 243.783
 30420, 226.762
 30480, 214.057
 30540, 194.518
 30600, 200.605
 30660, 197.974
 30720, 202.293
 30780, 189.184
 30840, 186.339
 30900, -9999.000
 30960, 175.548
 31020, 188.031
 31080, 206.527
 31140, 232.219
 31200, 251.294
 31260, 264.910
 31320, 277.018
 31380, 292.722
 31440, 311.060
 31500, 347.903
 31560, 391.168
 31620, 423.491
 31680, 441.106
 31740, 445.913
 31800, 440.774
 31860, 411.838
 31920, 380.995
 31980, 374.361
 32040, 354.974
 32100, 341.753
 32160, 330.906
 32220, 299.404
 32280, 261.650
 32340, 243.340
 32400, 238.558
 32460, 243.437
 32520, 240.298
 32580, 238.081
 32640, 236.136
 32700, 224.272
 32760, 211.906
 32820, 213.693
 32880, 214.653
 32940, 220.116
 33000, 214.339
 33060, 205.600
 33120, 200.031
 33180, 194.361
 33240, 200.395
 33300, 205.718
 33360, 195.469
 33420, 188.938
 33480, 173.241
 33540, 168.638
 33600, 159.285
 33660, 158.782
 33720, 169.887
 33780, 175.186
 33840, 174.457
 33900, 168.843
 33960, 167.191
 34020, 175.557
 34080, 172.227
 34140, 171.091
 34200, 165.383
 34260, 156.093
 34320, 151.186
 34380, 160.559
 34440, 169.985
 34500, 177.192
 34560, -9999.000
 34620, 178.789
 34680, 175.432
 34740, 175.014
 34800, 179.328
 34860, 180.753
 34920, 172.879
 34980, 169.511
 35040, 162.540
 35100, 157.821
 35160, 157.346
 35220, 160.472
 35280, 165.789
 35340, 164.217
 35400, 157.071
 35460, 163.233
 35520, 161.261
 35580, 168.717
 35640, 181.910
 35700, 197.464
 35760, 203.026
 35820, 211.091
 35880, 214.430
 35940, 220.368
 36000, 227.363
 36060, 228.359
 36120, 231.188
 36180, 233.932
 36240, 218.388
 36300, 214.005
 36360, 226.304
 36420, 241.500
 36480, 219.985
 36540, 208.610
 36600, 198.403
 36660, 201.499
 36720, 203.898
 36780, 213.782
 36840, 215.729
 36900, 208.607
 36960, 206.713
 37020, 206.535
 37080, 205.417
 37140, 214.076
 37200, 217.847
 37260, 215.767
 37320, 205.513
 37380, 197.774
 37440, 191.719
 37500, 188.359
 37560, 189.553
 37620, 191.280
 37680, 181.762
 37740, 170.830
 37800, 162.153
 37860, 165.154
 37920, 161.031
 37980, 155.560
 38040, 161.015
 38100, 167.599
 38160, 168.006
 38220, 162.867
 38280, -9999.000
 38340, 172.487
 38400, 172.881
 38460, 174.365
 38520, 173.243
 38580, 167.846
 38640, 165.440
 38700, 174.017
 38760, 182.860
 38820, 177.969
 38880, 170.379
 38940, 171.626
 39000, 170.541
 39060, 171.638
 39120, 173.406
 39180, 178.334
 39240, 180.170
 39300, 178.651
 39360, 170.477
 39420, 170.219
 39480, 175.510
 39540, 174.977
 39600, 172.040
 39660, 173.833
 39720, 178.263
 39780, 171.398
 39840, 173.487
 39900, 172.571
 39960, 164.656
 40020, 161.579
 40080, 160.266
 40140, 160.306
 40200, 166.415
 40260, 165.436
 40320, 161.365
 40380, 148.166
 40440, 147.303
 40500, 151.413
 40560, 156.399
 40620, 159.411
 40680, 159.310
 40740, 159.014
 40800, 158.917
 40860, 155.215
 40920, 156.510
 40980, 159.123
 41040, 156.132
 41100, 153.754
 41160, 155.503
 41220, 156.167
 41280, 156.098
 41340, 159.810
 41400, 160.702
 41460, 154.836
 41520, 153.960
 41580, 149.597
 41640, 149.270
 41700, 145.002
 41760, 128.053
 41820, 119.153
 41880, 119.500
 41940, 120.440
 42000, -9999.000
 42060, 135.390
 42120, 114.111
 42180, 118.819
 42240, 120.449
 42300, 111.654
 42360, 107.253
 42420, 110.437
 42480, 111.404
 42540, 114.584
 42600, 115.278
 42660, 115.786
 42720, 114.638
 42780, 109.498
 42840, 112.761
 42900, 116.857
 42960, 124.738
 43020, 128.647
 43080, 123.390
 43140, 119.158
 43200, 120.297
 43260, 121.775
 43320, 119.925
 43380, 117.274
 43440, 116.519
 43500, 115.588
 43560, 120.282
 43620, 125.061
 43680, 119.607
 43740, 117.021
 43800, 121.566
 43860, 127.892
 43920, 128.827
 43980, 127.312
 44040, 121.676
 44100, 123.136
 44160, 123.721
 44220, 121.477
 44280, 117.331
 44340, 112.869
 44400, 113.765
 44460, 120.090
 44520, 125.400
 44580, 118.760
 44640, 121.771
 44700, 119.200
 44760, 127.358
 44820, 135.200
 44880, 138.480
 44940, 130.864
 45000, 123.867
 45060, 119.676
 45120, 118.731
 45180, 98.578
 45240, 105.834
 45300, 116.366
 45360, 118.722
 45420, 118.339
 45480, 111.110
 45540, 115.117
 45600, 109.108
 45660, -9999.000
 45720, 110.466
 45780, 104.942
 45840, 104.984
 45900, 102.402
 45960, 104.164
 46020, 107.289
 46080, 105.089
 46140, 99.361
 46200, 99.377
 46260, 94.776
 46320, 92.647
 46380, 84.057
 46440, 74.796
 46500, 70.421
 46560, 67.029
 46620, 67.100
 46680, 60.057
 46740, 39.284
 46800, 19.772
 46860, 36.022
 46920, 236.643
 46980, 274.125
 47040, 234.388
 47100, 205.870
 47160, 182.303
 47220, 170.050
 47280, 173.804
 47340, 167.549
 47400, 166.990
 47460, 165.149
 47520, -9999.000
 47580, 182.911
 47640, 176.837
 47700, 171.889
 47760, 155.007
 47820, 142.118
 47880, 132.784
 47940, 135.104
 48000, 137.104
 48060, 147.251
 48120, 156.051
 48180, 159.220
 48240, 157.816
 48300, 169.121
 48360, 177.750
 48420, 183.189
 48480, 179.290
 48540, 182.888
 48600, 157.940
 48660, 157.014
 48720, 166.993
 48780, 170.482
 48840, 178.471
 48900, 185.636
 48960, 176.972
 49020, 175.647
 49080, 193.294
 49140, 203.004
 49200, 224.745
 49260, 223.892
 49320, 228.073
 49380, -9999.000
 49440, 227.795
 49500, 222.772
 49560, -9999.000
 49620, -9999.000
 49680, -9999.000
 49740, -9999.000
 49800, -9999.000
 49860, -9999.000
 49920, -9999.000
 49980, -9999.000
 50040, -9999.000
 50100, -9999.000
 50160, -9999.000
 50220, -9999.000
 50280, -9999.000
 50340, -9999.000
 50400, -9999.000
 50460, -9999.000
 50520, -9999.000
 50580, -9999.000
 50640, -9999.000
 50700, -9999.000
 50760, -9999.000
 50820, -9999.000
 50880, -9999.000
 50940, -9999.000
 51000, -9999.000
 51060, -9999.000
 51120, -9999.000
 51180, -9999.000
 51240, -9999.000
 51300, -9999.000
 51360, -9999.000
 51420, -9999.000
 51480, -9999.000
 51540, -9999.000
 51600, -9999.000
 51660, -9999.000
 51720, -9999.000
 51780, -9999.000
 51840, -9999.000
 51900, -9999.000
 51960, -9999.000
 52020, -9999.000
 52080, -9999.000
 52140, -9999.000
 52200, -9999.000
 52260, -9999.000
 52320, -9999.000
 52380, -9999.000
 52440, -9999.000
 52500, -9999.000
 52560, -9999.000
 52620, -9999.000
 52680, -9999.000
 52740, -9999.000
 52800, -9999.000
 52860, -9999.000
 52920, -9999.000
 52980, -9999.000
 53040, -9999.000
 53100, -9999.000
 53160, -9999.000
 53220, -9999.000
 53280, -9999.000
 53340, -9999.000
 53400, -9999.000
 53460, -9999.000
 53520, -9999.000
 53580, -9999.000
 53640, -9999.000
 53700, -9999.000
 53760, -9999.000
 53820, -9999.000
 53880, -9999.000
 53940, -9999.000
 54000, -9999.000
 54060, -9999.000
 54120, -9999.000
 54180, -9999.000
 54240, -9999.000
 54300, -9999.000
 54360, -9999.000
 54420, -9999.000
 54480, -9999.000
 54540, -9999.000
 54600, -9999.000
 54660, -9999.000
 54720, -9999.000
 54780, -9999.000
 54840, -9999.000
 54900, -9999.000
 54960, -9999.000
 55020, -9999.000
 55080, -9999.000
 55140, -9999.000
 55200, -9999.000
 55260, -9999.000
 55320, -9999.000
 55380, -9999.000
 55440, -9999.000
 55500, -9999.000
 55560, -9999.000
 55620, -9999.000
 55680, -9999.000
 55740, -9999.000
 55800, -9999.000
 55860, -9999.000
 55920, -9999.000
 55980, -9999.000
 56040, -9999.000
 56100, -9999.000
 56160, -9999.000
 56220, -9999.000
 56280, -9999.000
 56340, -9999.000
 56400, -9999.000
 56460, -9999.000
 56520, -9999.000
 56580, -9999.000
 56640, -9999.000
 56700, -9999.000
 56760, -9999.000
 56820, -9999.000
 56880, -9999.000
 56940, -9999.000
 57000, -9999.000
 57060, -9999.000
 57120, -9999.000
 57180, -9999.000
 57240, -9999.000
 57300, -9999.000
 57360, -9999.000
 57420, -9999.000
 57480, -9999.000
 57540, -9999.000
 57600, -9999.000
 57660, -9999.000
 57720, -9999.000
 57780, -9999.000
 57840, -9999.000
 57900, -9999.000
 57960, -9999.000
 58020, -9999.000
 58080, -9999.000
 58140, -9999.000
 58200, -9999.000
 58260, -9999.000
 58320, -9999.000
 58380, -9999.000
 58440, -9999.000
 58500, -9999.000
 58560, -9999.000
 58620, -9999.000
 58680, -9999.000
 58740, -9999.000
 58800, -9999.000
 58860, -9999.000
 58920, -9999.000
 58980, -9999.000
 59040, -9999.000
 59100, -9999.000
 59160, -9999.000
 59220, -9999.000
 59280, -9999.000
 59340, -9999.000
 59400, -9999.000
 59460, -9999.000
 59520, -9999.000
 59580, -9999.000
 59640, -9999.000
 59700, -9999.000
 59760, -9999.000
 59820, -9999.000
 59880, -9999.000
 59940, -9999.000
 60000, -9999.000
 60060, -9999.000
 60120, -9999.000
 60180, -9999.000
 60240, -9999.000
 60300, -9999.000
 60360, -9999.000
 60420, -9999.000
 60480, -9999.000
 60540, -9999.000
 60600, -9999.000
 60660, -9999.000
 60720, -9999.000
 60780, -9999.000
 60840, -9999.000
 60900, -9999.000
 60960, -9999.000
 61020, -9999.000
 61080, -9999.000
 61140, -9999.000
 61200, -9999.000
 61260, -9999.000
 61320, -9999.000
 61380, -9999.000
 61440, -9999.000
 61500, -9999.000
 61560, -9999.000
 61620, -9999.000
 61680, -9999.000
 61740, -9999.000
 61800, -9999.000
 61860, -9999.000
 61920, -9999.000
 61980, -9999.000
 62040, -9999.000
 62100, -9999.000
 62160, -9999.000
 62220, -9999.000
 62280, -9999.000
 62340, -9999.000
 62400, -9999.000
 62460, -9999.000
 62520, -9999.000
 62580, -9999.000
 62640, -9999.000
 62700, -9999.000
 62760, -9999.000
 62820, -9999.000
 62880, -9999.000
 62940, -9999.000
 63000, -9999.000
 63060, -9999.000
 63120, -9999.000
 63180, -9999.000
 63240, -9999.000
 63300, -9999.000
 63360, -9999.000
 63420, -9999.000
 63480, -9999.000
 63540, -9999.000
 63600, -9999.000
 63660, -9999.000
 63720, -9999.000
 63780, -9999.000
 63840, -9999.000
 63900, -9999.000
 63960, -9999.000
 64020, -9999.000
 64080, -9999.000
 64140, -9999.000
 64200, -9999.000
 64260, -9999.000
 64320, -9999.000
 64380, -9999.000
 64440, -9999.000
 64500, -9999.000
 64560, -9999.000
 64620, -9999.000
 64680, -9999.000
 64740, -9999.000
 64800, -9999.000
 64860, -9999.000
 64920, -9999.000
 64980, -9999.000
 65040, -9999.000
 65100, -9999.000
 65160, -9999.000
 65220, -9999.000
 65280, -9999.000
 65340, -9999.000
 65400, -9999.000
 65460, -9999.000
 65520, -9999.000
 65580, -9999.000
 65640, -9999.000
 65700, -9999.000
 65760, -9999.000
 65820, -9999.000
 65880, -9999.000
 65940, -9999.000
 66000, -9999.000
 66060, -9999.000
 66120, -9999.000
 66180, -9999.000
 66240, -9999.000
 66300, -9999.000
 66360, -9999.000
 66420, -9999.000
 66480, -9999.000
 66540, -9999.000
 66600, -9999.000
 66660, -9999.000
 66720, -9999.000
 66780, -9999.000
 66840, -9999.000
 66900, -9999.000
 66960, -9999.000
 67020, -9999.000
 67080, -9999.000
 67140, -9999.000
 67200, -9999.000
 67260, -9999.000
 67320, -9999.000
 67380, -9999.000
 67440, -9999.000
 67500, -9999.000
 67560, -9999.000
 67620, -9999.000
 67680, -9999.000
 67740, -9999.000
 67800, -9999.000
 67860, -9999.000
 67920, -9999.000
 67980, -9999.000
 68040, -9999.000
 68100, -9999.000
 68160, -9999.000
 68220, -9999.000
 68280, -9999.000
 68340, -9999.000
 68400, -9999.000
 68460, -9999.000
 68520, -9999.000
 68580, -9999.000
 68640, -9999.000
 68700, -9999.000
 68760, -9999.000
 68820, -9999.000
 68880, -9999.000
 68940, -9999.000
 69000, -9999.000
 69060, -9999.000
 69120, -9999.000
 69180, -9999.000
 69240, -9999.000
 69300, -9999.000
 69360, -9999.000
 69420, -9999.000
 69480, -9999.000
 69540, -9999.000
 69600, -9999.000
 69660, -9999.000
 69720, -9999.000
 69780, -9999.000
 69840, -9999.000
 69900, -9999.000
 69960, -9999.000
 70020, -9999.000
 70080, -9999.000
 70140, -9999.000
 70200, -9999.000
 70260, -9999.000
 70320, -9999.000
 70380, -9999.000
 70440, -9999.000
 70500, -9999.000
 70560, -9999.000
 70620, -9999.000
 70680, -9999.000
 70740, -9999.000
 70800, -9999.000
 70860, -9999.000
 70920, -9999.000
 70980, 1290.202
 71040, 1313.065
 71100, 1235.644
 71160, -9999.000
 71220, -9999.000
 71280, -9999.000
 71340, -9999.000
 71400, -9999.000
 71460, -9999.000
 71520, -9999.000
 71580, -9999.000
 71640, -9999.000
 71700, -9999.000
 71760, -9999.000
 71820, -9999.000
 71880, -9999.000
 71940, -9999.000
 72000, -9999.000
 72060, -9999.000
 72120, -9999.000
 72180, -9999.000
 72240, -9999.000
 72300, -9999.000
 72360, -9999.000
 72420, -9999.000
 72480, -9999.000
 72540, -9999.000
 72600, -9999.000
 72660, -9999.000
 72720, -9999.000
 72780, -9999.000
 72840, -9999.000
 72900, -9999.000
 72960, -9999.000
 73020, -9999.000
 73080, -9999.000
 73140, -9999.000
 73200, -9999.000
 73260, -9999.000
 73320, -9999.000
 73380, -9999.000
 73440, -9999.000
 73500, -9999.000
 73560, -9999.000
 73620, -9999.000
 73680, -9999.000
 73740, -9999.000
 73800, -9999.000
 73860, -9999.000
 73920, -9999.000
 73980, -9999.000
 74040, -9999.000
 74100, -9999.000
 74160, -9999.000
 74220, -9999.000
 74280, -9999.000
 74340, -9999.000
 74400, -9999.000
 74460, -9999.000
 74520, -9999.000
 74580, -9999.000
 74640, -9999.000
 74700, -9999.000
 74760, -9999.000
 74820, -9999.000
 74880, 631.791
 74940, -9999.000
 75000, 617.117
 75060, 643.886
 75120, 637.677
 75180, 642.088
 75240, 639.625
 75300, 601.284
 75360, 591.764
 75420, 602.423
 75480, 597.320
 75540, 585.519
 75600, 572.727
 75660, 593.351
 75720, 599.983
 75780, 604.815
 75840, 603.529
 75900, 617.112
 75960, 646.100
 76020, 639.295
 76080, 631.791
 76140, 611.315
 76200, 627.996
 76260, 636.570
 76320, 631.909
 76380, 614.964
 76440, 595.912
 76500, 619.708
 76560, 610.456
 76620, 616.130
 76680, 653.777
 76740, 663.713
 76800, -9999.000
 76860, 619.300
 76920, 665.155
 76980, 674.723
 77040, 670.786
 77100, 651.691
 77160, 636.370
 77220, 635.308
 77280, 632.370
 77340, 620.979
 77400, 644.792
 77460, 645.852
 77520, 644.237
 77580, 622.583
 77640, 635.081
 77700, 606.572
 77760, 568.309
 77820, 541.111
 77880, 549.383
 77940, 550.533
 78000, 545.981
 78060, 537.607
 78120, 539.091
 78180, 555.697
 78240, 577.212
 78300, 580.693
 78360, 571.155
 78420, 584.133
 78480, 571.539
 78540, 567.826
 78600, 570.230
 78660, 522.197
 78720, 518.451
 78780, 546.861
 78840, 582.198
 78900, 603.997
 78960, 602.799
 79020, 604.763
 79080, 622.060
 79140, 616.013
 79200, 641.635
 79260, 656.135
 79320, 681.698
 79380, 727.066
 79440, 751.699
 79500, 800.428
 79560, 836.387
 79620, 858.481
 79680, 809.665
 79740, 724.455
 79800, 750.692
 79860, 788.348
 79920, 791.366
 79980, 843.750
 80040, 830.859
 80100, 817.753
 80160, 843.229
 80220, 889.647
 80280, 870.656
 80340, 841.833
 80400, 814.748
 80460, -9999.000
 80520, 737.706
 80580, 845.209
 80640, 952.719
 80700, 992.264
 80760, 1011.623
 80820, 1020.284
 80880, 1021.242
 80940, 973.468
 81000, 974.458
 81060, 941.862
 81120, 936.688
 81180, 875.839
 81240, 862.879
 81300, 849.678
 81360, 810.505
 81420, 827.532
 81480, 838.073
 81540, 811.640
 81600, 784.273
 81660, 814.168
 81720, 813.979
 81780, 797.531
 81840, 791.747
 81900, 773.676
 81960, 774.721
 82020, 768.115
 82080, 736.765
 82140, 712.261
 82200, 679.991
 82260, 668.767
 82320, -9999.000
 82380, 627.742
 82440, 655.334
 82500, -9999.000
 82560, -9999.000
 82620, -9999.000
 82680, -9999.000
 82740, -9999.000
 82800, -9999.000
 82860, -9999.000
 82920, -9999.000
 82980, -9999.000
 83040, -9999.000
 83100, -9999.000
 83160, -9999.000
 83220, -9999.000
 83280, -9999.000
 83340, -9999.000
 83400, -9999.000
 83460, -9999.000
 83520, -9999.000
 83580, -9999.000
 83640, -9999.000
 83700, -9999.000
 83760, -9999.000
 83820, -9999.000
 83880, -9999.000
 83940, -9999.000
 84000, -9999.000
 84060, -9999.000
 84120, -9999.000
 84180, -9999.000
 84240, -9999.000
 84300, -9999.000
 84360, -9999.000
 84420, -9999.000
 84480, -9999.000
 84540, -9999.000
 84600, -9999.000
 84660, -9999.000
 84720, -9999.000
 84780, -9999.000
 84840, -9999.000
 84900, -9999.000
 84960, -9999.000
 85020, -9999.000
 85080, -9999.000
 85140, -9999.000
 85200, -9999.000
 85260, -9999.000
 85320, -9999.000
 85380, -9999.000
 85440, -9999.000
 85500, -9999.000
 85560, -9999.000
 85620, -9999.000
 85680, -9999.000
 85740, -9999.000
 85800, -9999.000
 85860, -9999.000
 85920, -9999.000
 85980, -9999.000
 86040, -9999.000
 86100, -9999.000
 86160, -9999.000
 86220, -9999.000
 86280, -9999.000
 86340, -9999.000
