33, 1001
Michael A Robinson, Chris Jernigan, Subi Thakali
NOAA ESRL Chemical Sciences Laboratory and CIRES, U. of Colorado
NOAA Iodide CIMS Instrument
USOS
1, 1
2024, 07, 28, 2024, 07, 29
1
starttime_UTC, seconds_past_midnight, seconds_of_day_since_00:00:00_UTC
1
1
-9999
N2O5_NOAACIMS, pptv, Gas_N2O5_InSitu_S_AVMR, 
0
18
PI_CONTACT_INFO: 325 Broadway, R/CSD 7, Boulder, Colorado 80305; michael.a.robinson@noaa.gov; chris.jernigan@noaa.gov;
PLATFORM: NOAA CSL Mobile Lab
LOCATION: SLC, Utah
ASSOCIATED_DATA: 1Hz data also available on request.
INSTRUMENT_INFO: NOAA I- ToF CIMS
DATA_INFO: All data in parts per trillion by volume (pptv). 1 Hz data is available upon request.
UNCERTAINTY: TBD
ULOD_FLAG: -7777
ULOD_VALUE: N/A
LLOD_FLAG: -8888
LLOD_VALUE: N/A
DM_CONTACT_INFO: Nathan Howard; nathan.h.howard@noaa.gov
PROJECT_INFO: USOS, summer 2024. https://csl.noaa.gov/groups/csl7/measurements/2024usos/
STIPULATIONS_ON_USE: Users are strongly encouraged to contact the PI for proper data usage.
OTHER_COMMENTS: 
REVISION: RA
RA: Preliminary Data; For in-field use only
starttime_UTC, N2O5_NOAACIMS
     0, -9999.000
    60, -9999.000
   120, -9999.000
   180, -9999.000
   240, -9999.000
   300, -9999.000
   360, -9999.000
   420, -9999.000
   480, -9999.000
   540, -9999.000
   600, -9999.000
   660, -9999.000
   720, -9999.000
   780, -9999.000
   840, -9999.000
   900, -9999.000
   960, -9999.000
  1020, -9999.000
  1080, -9999.000
  1140, -9999.000
  1200, -9999.000
  1260, -9999.000
  1320, -9999.000
  1380, -9999.000
  1440, -9999.000
  1500, -9999.000
  1560, -9999.000
  1620, -9999.000
  1680, -9999.000
  1740, -9999.000
  1800, -9999.000
  1860, -9999.000
  1920, -9999.000
  1980, -9999.000
  2040, -9999.000
  2100, -9999.000
  2160, -9999.000
  2220, -9999.000
  2280, -9999.000
  2340, -9999.000
  2400, -9999.000
  2460, -9999.000
  2520, -9999.000
  2580, -9999.000
  2640, -9999.000
  2700, -9999.000
  2760, -9999.000
  2820, -9999.000
  2880, -9999.000
  2940, -9999.000
  3000, -9999.000
  3060, -9999.000
  3120, -9999.000
  3180, -9999.000
  3240, -9999.000
  3300, -9999.000
  3360, -9999.000
  3420, -9999.000
  3480, -9999.000
  3540, -9999.000
  3600, -9999.000
  3660, -9999.000
  3720, -9999.000
  3780, -9999.000
  3840, -9999.000
  3900, -9999.000
  3960, -9999.000
  4020, -9999.000
  4080, -9999.000
  4140, -9999.000
  4200, -9999.000
  4260, -9999.000
  4320, -9999.000
  4380, -9999.000
  4440, -9999.000
  4500, -9999.000
  4560, -9999.000
  4620, -9999.000
  4680, -9999.000
  4740, -9999.000
  4800, -9999.000
  4860, -9999.000
  4920, -9999.000
  4980, -9999.000
  5040, -9999.000
  5100, -9999.000
  5160, -9999.000
  5220, -9999.000
  5280, -9999.000
  5340,  2.619
  5400,  2.714
  5460,  2.902
  5520,  2.975
  5580,  3.197
  5640,  2.996
  5700,  3.497
  5760,  3.182
  5820,  3.577
  5880,  4.966
  5940,  4.549
  6000,  4.304
  6060,  4.542
  6120,  4.108
  6180,  3.993
  6240,  4.073
  6300,  4.716
  6360,  4.742
  6420,  4.957
  6480,  5.478
  6540,  4.852
  6600,  3.906
  6660,  4.897
  6720,  3.902
  6780,  4.970
  6840,  4.678
  6900,  4.437
  6960,  4.797
  7020,  5.243
  7080,  5.951
  7140,  4.664
  7200,  4.452
  7260,  5.211
  7320,  4.763
  7380,  6.270
  7440,  4.739
  7500,  6.408
  7560,  5.975
  7620,  4.906
  7680,  4.078
  7740,  4.352
  7800,  3.251
  7860,  3.576
  7920,  3.894
  7980,  3.742
  8040,  4.713
  8100,  4.227
  8160,  4.351
  8220,  3.624
  8280,  3.497
  8340,  3.854
  8400,  2.970
  8460,  3.976
  8520, -9999.000
  8580,  4.971
  8640,  4.214
  8700,  4.710
  8760,  4.604
  8820,  4.460
  8880,  3.788
  8940,  4.353
  9000,  4.373
  9060,  4.453
  9120,  3.990
  9180,  4.566
  9240,  4.478
  9300,  4.823
  9360,  4.420
  9420,  5.156
  9480,  4.402
  9540,  5.068
  9600,  6.504
  9660,  6.765
  9720,  6.543
  9780,  5.804
  9840,  5.598
  9900,  6.425
  9960,  5.531
 10020,  6.529
 10080,  6.632
 10140,  4.697
 10200,  6.289
 10260,  5.840
 10320,  5.583
 10380, -9999.000
 10440,  4.844
 10500,  5.095
 10560,  4.796
 10620,  4.966
 10680,  5.573
 10740,  5.325
 10800,  4.915
 10860,  5.809
 10920,  5.180
 10980,  4.876
 11040,  5.541
 11100,  6.095
 11160,  5.938
 11220,  6.459
 11280,  7.684
 11340,  5.777
 11400,  5.420
 11460,  6.007
 11520,  5.360
 11580,  6.310
 11640,  6.160
 11700,  7.084
 11760,  7.539
 11820,  8.010
 11880, 14.558
 11940, 48.715
 12000, 141.686
 12060, 94.136
 12120, 107.042
 12180, 142.591
 12240, -9999.000
 12300, 142.916
 12360, 55.830
 12420, 18.820
 12480,  8.158
 12540,  6.198
 12600,  7.002
 12660,  6.637
 12720,  6.284
 12780,  6.901
 12840,  6.588
 12900,  6.599
 12960,  7.457
 13020,  5.728
 13080,  6.581
 13140,  7.370
 13200,  6.656
 13260,  6.181
 13320,  6.426
 13380,  6.903
 13440,  8.187
 13500,  9.082
 13560,  7.874
 13620,  6.867
 13680,  7.484
 13740,  6.973
 13800,  8.499
 13860,  9.651
 13920,  8.803
 13980,  9.582
 14040,  6.708
 14100, 52.705
 14160, 69.695
 14220, 158.600
 14280, 133.456
 14340, 88.928
 14400, 82.139
 14460, 174.270
 14520, 170.802
 14580, 151.700
 14640, 162.408
 14700, 109.343
 14760, 178.382
 14820, 168.349
 14880, 122.544
 14940, 122.033
 15000, 134.827
 15060, 150.839
 15120, 151.984
 15180, 131.845
 15240, 137.272
 15300, 161.481
 15360, 236.077
 15420, 235.936
 15480, 253.271
 15540, 226.372
 15600, 193.772
 15660, 173.620
 15720, 165.810
 15780, 210.911
 15840, 303.497
 15900, -9999.000
 15960, 211.666
 16020, 272.543
 16080, 282.652
 16140, 264.828
 16200, 315.004
 16260, 364.495
 16320, 389.568
 16380, 437.471
 16440, 320.182
 16500, 355.438
 16560, 333.113
 16620, 323.258
 16680, 292.752
 16740, 303.038
 16800, 348.347
 16860, 323.801
 16920, 303.285
 16980, 277.092
 17040, 217.331
 17100, 163.839
 17160, 243.267
 17220, 226.196
 17280, 254.018
 17340, 258.461
 17400, 238.291
 17460, 192.620
 17520, 173.542
 17580, 203.098
 17640, 177.715
 17700, 189.729
 17760, -9999.000
 17820, 142.831
 17880, 139.607
 17940, 146.973
 18000, 126.923
 18060, 139.175
 18120, 123.932
 18180, 138.488
 18240, 165.391
 18300, 143.467
 18360, 95.003
 18420, 40.519
 18480, 32.749
 18540, 41.166
 18600, 48.020
 18660, 54.755
 18720, 61.558
 18780, 73.387
 18840, 85.793
 18900, 93.615
 18960, 91.991
 19020, 102.722
 19080, 110.645
 19140, 113.493
 19200, 109.347
 19260, 98.172
 19320, 121.364
 19380, 117.920
 19440, 111.879
 19500, 139.474
 19560, 136.541
 19620, -9999.000
 19680, 135.450
 19740, 101.541
 19800, 94.774
 19860, 108.098
 19920, 94.830
 19980, 102.372
 20040, 118.002
 20100, 120.899
 20160, 153.452
 20220, 163.839
 20280, 170.140
 20340, 171.161
 20400, 174.744
 20460, 202.895
 20520, 225.535
 20580, 180.646
 20640, 141.228
 20700, 116.599
 20760, 155.924
 20820, 161.213
 20880, 198.239
 20940, 193.746
 21000, 160.539
 21060, 133.176
 21120, 121.108
 21180, 97.123
 21240, 77.016
 21300, 61.553
 21360, 35.629
 21420, 23.962
 21480, 15.683
 21540, 13.999
 21600, 10.770
 21660,  9.585
 21720,  9.090
 21780,  8.190
 21840, 10.443
 21900, 19.012
 21960, 42.481
 22020, 62.610
 22080, 69.127
 22140, 62.925
 22200, 88.356
 22260, 140.561
 22320, 159.418
 22380, 152.447
 22440, 157.671
 22500, 158.494
 22560, 145.493
 22620, 167.880
 22680, 180.560
 22740, 179.911
 22800, 204.048
 22860, 213.952
 22920, 207.804
 22980, 246.022
 23040, 199.988
 23100, 195.096
 23160, 187.818
 23220, 163.285
 23280, 184.215
 23340, 256.118
 23400, 245.830
 23460, 205.710
 23520, 260.527
 23580, 251.152
 23640, 276.412
 23700, 297.957
 23760, 180.292
 23820, 242.466
 23880, 226.493
 23940, 214.084
 24000, 201.024
 24060, 173.733
 24120, 147.481
 24180, 141.845
 24240, 137.817
 24300, 168.127
 24360, 159.301
 24420, 237.026
 24480, 195.605
 24540, 216.684
 24600, 277.947
 24660, 265.536
 24720, 288.968
 24780, 239.654
 24840, 230.598
 24900, 181.372
 24960, 232.634
 25020, 212.052
 25080, 283.609
 25140, 288.531
 25200, 329.160
 25260, 352.485
 25320, 387.344
 25380, 410.054
 25440, 309.452
 25500, 278.390
 25560, 283.523
 25620, 289.579
 25680, 252.478
 25740, 227.234
 25800, 215.707
 25860, 314.334
 25920, 286.151
 25980, 328.826
 26040, 299.644
 26100, 272.841
 26160, 273.505
 26220, 280.676
 26280, 306.558
 26340, 281.525
 26400, 179.241
 26460, 210.642
 26520, 243.604
 26580, 236.137
 26640, 205.360
 26700, 198.992
 26760, 231.808
 26820, 132.662
 26880, 195.634
 26940, 168.846
 27000, -9999.000
 27060, 169.579
 27120, 208.706
 27180, 212.929
 27240, 229.984
 27300, 160.803
 27360, 226.270
 27420, 132.415
 27480, 196.082
 27540, 170.639
 27600, 134.066
 27660, 133.841
 27720, 157.497
 27780, 151.081
 27840, 160.735
 27900, 214.390
 27960, 245.298
 28020, 255.666
 28080, 255.646
 28140, 195.716
 28200, 247.759
 28260, 210.765
 28320, 275.334
 28380, 280.601
 28440, 314.749
 28500, 288.345
 28560, 209.562
 28620, 172.524
 28680, 210.870
 28740, 245.790
 28800, 203.900
 28860, -9999.000
 28920, 170.836
 28980, 239.911
 29040, 218.630
 29100, 277.267
 29160, 224.539
 29220, 194.013
 29280, 206.399
 29340, 180.927
 29400, 176.351
 29460, 171.968
 29520, 242.554
 29580, 331.924
 29640, 165.083
 29700, 223.552
 29760, 108.632
 29820, 188.117
 29880, 239.996
 29940, 131.521
 30000, 113.614
 30060, 112.128
 30120, 155.772
 30180, 130.258
 30240, 166.963
 30300, 164.646
 30360, 156.474
 30420, 120.253
 30480, 158.920
 30540, 170.942
 30600, 193.823
 30660, 166.690
 30720, -9999.000
 30780, 216.512
 30840, 214.643
 30900, 177.882
 30960, 154.935
 31020, 185.895
 31080, 229.289
 31140, 143.390
 31200, 228.532
 31260, 236.014
 31320, 239.831
 31380, 231.130
 31440, 216.369
 31500, 213.653
 31560, 184.724
 31620, 223.566
 31680, 256.728
 31740, 275.422
 31800, 277.538
 31860, 296.301
 31920, 208.783
 31980, 167.523
 32040, 148.533
 32100, 156.320
 32160, 190.228
 32220, 164.333
 32280, 175.253
 32340, 165.149
 32400, 214.923
 32460, 206.663
 32520, 190.541
 32580, 354.095
 32640, 316.702
 32700, 366.248
 32760, 255.902
 32820, 208.226
 32880, 237.129
 32940, 252.736
 33000, 254.485
 33060, 216.246
 33120, 189.328
 33180, 171.178
 33240, 104.068
 33300, 110.066
 33360, 107.242
 33420, 132.010
 33480, 139.381
 33540, 252.408
 33600, 307.987
 33660, 303.721
 33720, 231.433
 33780, 210.366
 33840, 212.659
 33900, 179.821
 33960, 156.447
 34020, 98.725
 34080, 120.547
 34140, 123.182
 34200, 121.630
 34260, 126.126
 34320, 187.776
 34380, -9999.000
 34440, 149.490
 34500, 184.725
 34560, 159.032
 34620, 159.572
 34680, 136.278
 34740, 141.792
 34800, 195.387
 34860, 119.268
 34920, 206.270
 34980, 240.168
 35040, 253.806
 35100, 218.906
 35160, 37.509
 35220, 60.298
 35280, 115.048
 35340, 137.922
 35400, 77.313
 35460, 76.792
 35520, 100.615
 35580, 110.712
 35640, 95.826
 35700, 84.533
 35760, 105.702
 35820, 95.704
 35880, 140.641
 35940, 119.491
 36000, 109.494
 36060, 110.375
 36120, 105.378
 36180, 93.050
 36240, -9999.000
 36300, 70.220
 36360, 42.736
 36420, 49.416
 36480, 32.108
 36540, 31.494
 36600, 46.136
 36660, 45.399
 36720, 18.355
 36780, 30.218
 36840, 32.969
 36900, 45.999
 36960, 42.278
 37020, 53.473
 37080, 38.434
 37140, 24.227
 37200, 23.725
 37260, 20.913
 37320, 40.718
 37380, 45.984
 37440, 50.840
 37500, 38.292
 37560, 35.730
 37620, 42.035
 37680, 50.402
 37740, 52.499
 37800, 47.879
 37860, 44.893
 37920, 44.227
 37980, 44.550
 38040, 52.470
 38100, -9999.000
 38160, 20.362
 38220, 19.678
 38280, 18.596
 38340, 22.398
 38400, 29.465
 38460, 30.861
 38520, 21.283
 38580, 18.493
 38640, 29.293
 38700, 38.403
 38760, 36.322
 38820, 30.728
 38880, 40.085
 38940, 31.010
 39000, 26.418
 39060, 34.181
 39120, 23.462
 39180, 22.650
 39240, 31.397
 39300, 20.000
 39360, 24.344
 39420, 30.675
 39480, 29.410
 39540, 26.279
 39600, 28.916
 39660, 51.060
 39720, 60.352
 39780, 25.776
 39840, 15.265
 39900, 21.335
 39960, 49.822
 40020, 51.537
 40080, 52.312
 40140, 44.256
 40200, 55.900
 40260, 39.733
 40320, 39.883
 40380, 38.370
 40440, 40.240
 40500, 40.044
 40560, 42.354
 40620, 46.125
 40680, 36.549
 40740, 43.150
 40800, 42.151
 40860, 40.986
 40920, 36.278
 40980, 26.966
 41040, 20.513
 41100, 16.043
 41160, 19.365
 41220, 36.262
 41280, 46.181
 41340, 40.838
 41400, 32.243
 41460, 28.240
 41520, 35.047
 41580, 29.414
 41640, 30.041
 41700, 24.556
 41760, 29.498
 41820, 23.989
 41880, 26.047
 41940, 22.457
 42000, 19.448
 42060, 16.541
 42120, 22.853
 42180, 31.598
 42240, 31.905
 42300, 24.246
 42360, 32.192
 42420, 23.386
 42480,  8.564
 42540, 14.241
 42600, 15.201
 42660,  6.504
 42720,  3.134
 42780,  7.658
 42840, 20.597
 42900, 15.357
 42960, 12.827
 43020, 10.622
 43080,  5.582
 43140,  5.074
 43200,  9.823
 43260,  4.121
 43320, 16.242
 43380, 23.888
 43440, 27.178
 43500, 25.365
 43560, 15.189
 43620, 15.398
 43680, 14.862
 43740, 13.317
 43800, 15.421
 43860, 14.118
 43920, 12.613
 43980, 20.967
 44040, 21.859
 44100, 24.451
 44160, 21.792
 44220, 14.551
 44280, 13.961
 44340,  8.978
 44400, 10.789
 44460,  8.140
 44520,  5.643
 44580,  5.814
 44640,  6.015
 44700,  9.063
 44760,  8.648
 44820,  7.627
 44880,  5.436
 44940,  4.567
 45000,  4.104
 45060,  4.415
 45120,  4.158
 45180,  3.807
 45240,  4.142
 45300,  4.571
 45360,  3.572
 45420,  2.867
 45480, -9999.000
 45540,  3.092
 45600,  3.025
 45660,  2.600
 45720,  2.723
 45780,  3.313
 45840,  3.568
 45900,  4.363
 45960,  3.640
 46020,  4.031
 46080,  3.610
 46140,  2.799
 46200,  3.059
 46260,  3.620
 46320,  3.340
 46380,  2.416
 46440,  2.720
 46500,  3.008
 46560,  2.776
 46620,  2.543
 46680,  2.591
 46740,  2.805
 46800, -9999.000
 46860, -9999.000
 46920, -9999.000
 46980, -9999.000
 47040, -9999.000
 47100, -9999.000
 47160, -9999.000
 47220, -9999.000
 47280, -9999.000
 47340, -9999.000
 47400, -9999.000
 47460, -9999.000
 47520, -9999.000
 47580, -9999.000
 47640, -9999.000
 47700, -9999.000
 47760, -9999.000
 47820, -9999.000
 47880, -9999.000
 47940, -9999.000
 48000, -9999.000
 48060, -9999.000
 48120, -9999.000
 48180, -9999.000
 48240, -9999.000
 48300, -9999.000
 48360, -9999.000
 48420, -9999.000
 48480, -9999.000
 48540, -9999.000
 48600, -9999.000
 48660, -9999.000
 48720, -9999.000
 48780, -9999.000
 48840, -9999.000
 48900, -9999.000
 48960, -9999.000
 49020, -9999.000
 49080, -9999.000
 49140, -9999.000
 49200, -9999.000
 49260, -9999.000
 49320, -9999.000
 49380, -9999.000
 49440, -9999.000
 49500, -9999.000
 49560, -9999.000
 49620, -9999.000
 49680, -9999.000
 49740, -9999.000
 49800, -9999.000
 49860, -9999.000
 49920, -9999.000
 49980, -9999.000
 50040, -9999.000
 50100, -9999.000
 50160, -9999.000
 50220, -9999.000
 50280, -9999.000
 50340, -9999.000
 50400, -9999.000
 50460, -9999.000
 50520, -9999.000
 50580, -9999.000
 50640, -9999.000
 50700, -9999.000
 50760, -9999.000
 50820, -9999.000
 50880, -9999.000
 50940, -9999.000
 51000, -9999.000
 51060, -9999.000
 51120, -9999.000
 51180, -9999.000
 51240, -9999.000
 51300, -9999.000
 51360, -9999.000
 51420, -9999.000
 51480, -9999.000
 51540, -9999.000
 51600, -9999.000
 51660, -9999.000
 51720, -9999.000
 51780, -9999.000
 51840, -9999.000
 51900, -9999.000
 51960, -9999.000
 52020, -9999.000
 52080, -9999.000
 52140, -9999.000
 52200, -9999.000
 52260, -9999.000
 52320, -9999.000
 52380, -9999.000
 52440, -9999.000
 52500, -9999.000
 52560, -9999.000
 52620, -9999.000
 52680, -9999.000
 52740, -9999.000
 52800, -9999.000
 52860, -9999.000
 52920, -9999.000
 52980, -9999.000
 53040, -9999.000
 53100, -9999.000
 53160, -9999.000
 53220, -9999.000
 53280, -9999.000
 53340, -9999.000
 53400, -9999.000
 53460, -9999.000
 53520, -9999.000
 53580, -9999.000
 53640, -9999.000
 53700, -9999.000
 53760, -9999.000
 53820, -9999.000
 53880, -9999.000
 53940, -9999.000
 54000, -9999.000
 54060, -9999.000
 54120, -9999.000
 54180, -9999.000
 54240, -9999.000
 54300, -9999.000
 54360, -9999.000
 54420, -9999.000
 54480, -9999.000
 54540, -9999.000
 54600, -9999.000
 54660, -9999.000
 54720, -9999.000
 54780, -9999.000
 54840, -9999.000
 54900, -9999.000
 54960, -9999.000
 55020, -9999.000
 55080, -9999.000
 55140, -9999.000
 55200, -9999.000
 55260, -9999.000
 55320, -9999.000
 55380, -9999.000
 55440, -9999.000
 55500, -9999.000
 55560, -9999.000
 55620, -9999.000
 55680, -9999.000
 55740, -9999.000
 55800, -9999.000
 55860, -9999.000
 55920, -9999.000
 55980, -9999.000
 56040, -9999.000
 56100, -9999.000
 56160, -9999.000
 56220, -9999.000
 56280, -9999.000
 56340, -9999.000
 56400, -9999.000
 56460, -9999.000
 56520, -9999.000
 56580, -9999.000
 56640, -9999.000
 56700, -9999.000
 56760, -9999.000
 56820, -9999.000
 56880, -9999.000
 56940, -9999.000
 57000, -9999.000
 57060, -9999.000
 57120, -9999.000
 57180, -9999.000
 57240, -9999.000
 57300, -9999.000
 57360, -9999.000
 57420, -9999.000
 57480, -9999.000
 57540, -9999.000
 57600, -9999.000
 57660, -9999.000
 57720, -9999.000
 57780, -9999.000
 57840, -9999.000
 57900, -9999.000
 57960, -9999.000
 58020, -9999.000
 58080, -9999.000
 58140, -9999.000
 58200, -9999.000
 58260, -9999.000
 58320, -9999.000
 58380, -9999.000
 58440, -9999.000
 58500, -9999.000
 58560, -9999.000
 58620, -9999.000
 58680, -9999.000
 58740, -9999.000
 58800, -9999.000
 58860, -9999.000
 58920, -9999.000
 58980, -9999.000
 59040, -9999.000
 59100, -9999.000
 59160, -9999.000
 59220, -9999.000
 59280, -9999.000
 59340, -9999.000
 59400, -9999.000
 59460, -9999.000
 59520, -9999.000
 59580, -9999.000
 59640, -9999.000
 59700, -9999.000
 59760, -9999.000
 59820, -9999.000
 59880, -9999.000
 59940, -9999.000
 60000, -9999.000
 60060, -9999.000
 60120, -9999.000
 60180, -9999.000
 60240, -9999.000
 60300, -9999.000
 60360, -9999.000
 60420, -9999.000
 60480, -9999.000
 60540, -9999.000
 60600, -9999.000
 60660, -9999.000
 60720, -9999.000
 60780, -9999.000
 60840, -9999.000
 60900, -9999.000
 60960, -9999.000
 61020, -9999.000
 61080, -9999.000
 61140, -9999.000
 61200, -9999.000
 61260, -9999.000
 61320, -9999.000
 61380, -9999.000
 61440, -9999.000
 61500, -9999.000
 61560, -9999.000
 61620, -9999.000
 61680, -9999.000
 61740, -9999.000
 61800, -9999.000
 61860, -9999.000
 61920, -9999.000
 61980, -9999.000
 62040, -9999.000
 62100, -9999.000
 62160, -9999.000
 62220, -9999.000
 62280, -9999.000
 62340, -9999.000
 62400, -9999.000
 62460, -9999.000
 62520, -9999.000
 62580, -9999.000
 62640, -9999.000
 62700, -9999.000
 62760, -9999.000
 62820, -9999.000
 62880, -9999.000
 62940, -9999.000
 63000, -9999.000
 63060, -9999.000
 63120, -9999.000
 63180, -9999.000
 63240, -9999.000
 63300, -9999.000
 63360, -9999.000
 63420, -9999.000
 63480, -9999.000
 63540, -9999.000
 63600, -9999.000
 63660, -9999.000
 63720, -9999.000
 63780, -9999.000
 63840, -9999.000
 63900, -9999.000
 63960, -9999.000
 64020, -9999.000
 64080, -9999.000
 64140, -9999.000
 64200, -9999.000
 64260, -9999.000
 64320, -9999.000
 64380, -9999.000
 64440, -9999.000
 64500, -9999.000
 64560, -9999.000
 64620, -9999.000
 64680, -9999.000
 64740, -9999.000
 64800, -9999.000
 64860, -9999.000
 64920, -9999.000
 64980, -9999.000
 65040, -9999.000
 65100, -9999.000
 65160, -9999.000
 65220, -9999.000
 65280, -9999.000
 65340, -9999.000
 65400, -9999.000
 65460, -9999.000
 65520, -9999.000
 65580, -9999.000
 65640, -9999.000
 65700, -9999.000
 65760, -9999.000
 65820, -9999.000
 65880, -9999.000
 65940, -9999.000
 66000, -9999.000
 66060, -9999.000
 66120, -9999.000
 66180, -9999.000
 66240, -9999.000
 66300, -9999.000
 66360, -9999.000
 66420, -9999.000
 66480, -9999.000
 66540, -9999.000
 66600, -9999.000
 66660, -9999.000
 66720, -9999.000
 66780, -9999.000
 66840, -9999.000
 66900, -9999.000
 66960, -9999.000
 67020, -9999.000
 67080, -9999.000
 67140, -9999.000
 67200, -9999.000
 67260, -9999.000
 67320, -9999.000
 67380, -9999.000
 67440, -9999.000
 67500, -9999.000
 67560, -9999.000
 67620, -9999.000
 67680, -9999.000
 67740, -9999.000
 67800, -9999.000
 67860, -9999.000
 67920, -9999.000
 67980, -9999.000
 68040, -9999.000
 68100, -9999.000
 68160, -9999.000
 68220, -9999.000
 68280, -9999.000
 68340, -9999.000
 68400, -9999.000
 68460, -9999.000
 68520, -9999.000
 68580, -9999.000
 68640, -9999.000
 68700, -9999.000
 68760, -9999.000
 68820, -9999.000
 68880, -9999.000
 68940, -9999.000
 69000, -9999.000
 69060, -9999.000
 69120, -9999.000
 69180, -9999.000
 69240, -9999.000
 69300, -9999.000
 69360, -9999.000
 69420, -9999.000
 69480, -9999.000
 69540, -9999.000
 69600, -9999.000
 69660, -9999.000
 69720, -9999.000
 69780, -9999.000
 69840, -9999.000
 69900, -9999.000
 69960, -9999.000
 70020, -9999.000
 70080, -9999.000
 70140, -9999.000
 70200, -9999.000
 70260, -9999.000
 70320, -9999.000
 70380, -9999.000
 70440, -9999.000
 70500, -9999.000
 70560, -9999.000
 70620, -9999.000
 70680, -9999.000
 70740, -9999.000
 70800, -9999.000
 70860, -9999.000
 70920, -9999.000
 70980, -9999.000
 71040, -9999.000
 71100, -9999.000
 71160, -9999.000
 71220, -9999.000
 71280, -9999.000
 71340, -9999.000
 71400, -9999.000
 71460, -9999.000
 71520, -9999.000
 71580, -9999.000
 71640, -9999.000
 71700, -9999.000
 71760, -9999.000
 71820, -9999.000
 71880, -9999.000
 71940, -9999.000
 72000, -9999.000
 72060, -9999.000
 72120, -9999.000
 72180, -9999.000
 72240, -9999.000
 72300, -9999.000
 72360, -9999.000
 72420, -9999.000
 72480, -9999.000
 72540, -9999.000
 72600, -9999.000
 72660, -9999.000
 72720, -9999.000
 72780, -9999.000
 72840, -9999.000
 72900, -9999.000
 72960, -9999.000
 73020, -9999.000
 73080, -9999.000
 73140, -9999.000
 73200, -9999.000
 73260, -9999.000
 73320, -9999.000
 73380, -9999.000
 73440, -9999.000
 73500, -9999.000
 73560, -9999.000
 73620, -9999.000
 73680, -9999.000
 73740, -9999.000
 73800, -9999.000
 73860, -9999.000
 73920, -9999.000
 73980, -9999.000
 74040, -9999.000
 74100, -9999.000
 74160, -9999.000
 74220, -9999.000
 74280, -9999.000
 74340, -9999.000
 74400, -9999.000
 74460, -9999.000
 74520, -9999.000
 74580, -9999.000
 74640, -9999.000
 74700, -9999.000
 74760, -9999.000
 74820, -9999.000
 74880, -9999.000
 74940, -9999.000
 75000, -9999.000
 75060, -9999.000
 75120, -9999.000
 75180, -9999.000
 75240, -9999.000
 75300, -9999.000
 75360, -9999.000
 75420, -9999.000
 75480, -9999.000
 75540, -9999.000
 75600, -9999.000
 75660, -9999.000
 75720, -9999.000
 75780, -9999.000
 75840, -9999.000
 75900, -9999.000
 75960, -9999.000
 76020, -9999.000
 76080, -9999.000
 76140, -9999.000
 76200, -9999.000
 76260, -9999.000
 76320, -9999.000
 76380, -9999.000
 76440, -9999.000
 76500, -9999.000
 76560, -9999.000
 76620, -9999.000
 76680, -9999.000
 76740, -9999.000
 76800, -9999.000
 76860, -9999.000
 76920, -9999.000
 76980, -9999.000
 77040, -9999.000
 77100, -9999.000
 77160, -9999.000
 77220, -9999.000
 77280, -9999.000
 77340, -9999.000
 77400, -9999.000
 77460, -9999.000
 77520, -9999.000
 77580, -9999.000
 77640, -9999.000
 77700, -9999.000
 77760, -9999.000
 77820, -9999.000
 77880, -9999.000
 77940, -9999.000
 78000, -9999.000
 78060, -9999.000
 78120, -9999.000
 78180, -9999.000
 78240, -9999.000
 78300, -9999.000
 78360, -9999.000
 78420, -9999.000
 78480, -9999.000
 78540, -9999.000
 78600, -9999.000
 78660, -9999.000
 78720, -9999.000
 78780, -9999.000
 78840, -9999.000
 78900, -9999.000
 78960, -9999.000
 79020, -9999.000
 79080, -9999.000
 79140, -9999.000
 79200, -9999.000
 79260, -9999.000
 79320, -9999.000
 79380, -9999.000
 79440, -9999.000
 79500, -9999.000
 79560, -9999.000
 79620, -9999.000
 79680, -9999.000
 79740, -9999.000
 79800, -9999.000
 79860, -9999.000
 79920, -9999.000
 79980, -9999.000
 80040, -9999.000
 80100, -9999.000
 80160, -9999.000
 80220, -9999.000
 80280, -9999.000
 80340, -9999.000
 80400, -9999.000
 80460, -9999.000
 80520, -9999.000
 80580, -9999.000
 80640, -9999.000
 80700, -9999.000
 80760, -9999.000
 80820, -9999.000
 80880, -9999.000
 80940, -9999.000
 81000, -9999.000
 81060, -9999.000
 81120, -9999.000
 81180, -9999.000
 81240, -9999.000
 81300, -9999.000
 81360, -9999.000
 81420, -9999.000
 81480, -9999.000
 81540, -9999.000
 81600, -9999.000
 81660, -9999.000
 81720, -9999.000
 81780, -9999.000
 81840, -9999.000
 81900, -9999.000
 81960, -9999.000
 82020, -9999.000
 82080, -9999.000
 82140, -9999.000
 82200, -9999.000
 82260, -9999.000
 82320, -9999.000
 82380, -9999.000
 82440, -9999.000
 82500, -9999.000
 82560, -9999.000
 82620, -9999.000
 82680, -9999.000
 82740, -9999.000
 82800, -9999.000
 82860, -9999.000
 82920, -9999.000
 82980, -9999.000
 83040, -9999.000
 83100, -9999.000
 83160, -9999.000
 83220, -9999.000
 83280, -9999.000
 83340, -9999.000
 83400, -9999.000
 83460, -9999.000
 83520, -9999.000
 83580, -9999.000
 83640, -9999.000
 83700, -9999.000
 83760, -9999.000
 83820, -9999.000
 83880, -9999.000
 83940, -9999.000
 84000, -9999.000
 84060, -9999.000
 84120, -9999.000
 84180, -9999.000
 84240, -9999.000
 84300, -9999.000
 84360, -9999.000
 84420, -9999.000
 84480, -9999.000
 84540, -9999.000
 84600, -9999.000
 84660, -9999.000
 84720, -9999.000
 84780, -9999.000
 84840, -9999.000
 84900, -9999.000
 84960, -9999.000
 85020, -9999.000
 85080, -9999.000
 85140, -9999.000
 85200, -9999.000
 85260, -9999.000
 85320, -9999.000
 85380, -9999.000
 85440, -9999.000
 85500, -9999.000
 85560, -9999.000
 85620, -9999.000
 85680, -9999.000
 85740, -9999.000
 85800, -9999.000
 85860, -9999.000
 85920, -9999.000
 85980, -9999.000
 86040, -9999.000
 86100, -9999.000
 86160, -9999.000
 86220, -9999.000
 86280, -9999.000
 86340, -9999.000
