33, 1001
Michael A Robinson, Chris Jernigan, Subi Thakali
NOAA ESRL Chemical Sciences Laboratory and CIRES, U. of Colorado
NOAA Iodide CIMS Instrument
USOS
1, 1
2024, 07, 28, 2024, 07, 29
1
starttime_UTC, seconds_past_midnight, seconds_of_day_since_00:00:00_UTC
1
1
-9999
HNO2_NOAACIMS, pptv, Gas_HNO2_InSitu_S_AVMR, 
0
18
PI_CONTACT_INFO: 325 Broadway, R/CSD 7, Boulder, Colorado 80305; michael.a.robinson@noaa.gov; chris.jernigan@noaa.gov;
PLATFORM: NOAA CSL Mobile Lab
LOCATION: SLC, Utah
ASSOCIATED_DATA: 1Hz data also available on request.
INSTRUMENT_INFO: NOAA I- ToF CIMS
DATA_INFO: All data in parts per trillion by volume (pptv). 1 Hz data is available upon request.
UNCERTAINTY: TBD
ULOD_FLAG: -7777
ULOD_VALUE: N/A
LLOD_FLAG: -8888
LLOD_VALUE: N/A
DM_CONTACT_INFO: Nathan Howard; nathan.h.howard@noaa.gov
PROJECT_INFO: USOS, summer 2024. https://csl.noaa.gov/groups/csl7/measurements/2024usos/
STIPULATIONS_ON_USE: Users are strongly encouraged to contact the PI for proper data usage.
OTHER_COMMENTS: 
REVISION: RA
RA: Preliminary Data; For in-field use only
starttime_UTC, HNO2_NOAACIMS
     0, 56.522
    60, 13.063
   120, 25.596
   180, 17.582
   240, 43.113
   300, 11.484
   360,  4.914
   420, 20.103
   480, 23.012
   540, 24.706
   600, 17.027
   660, 13.702
   720, 29.884
   780, 36.245
   840, 29.268
   900, 12.390
   960, 18.109
  1020, 20.557
  1080, 21.086
  1140, -9999.000
  1200, 10.582
  1260, 18.211
  1320, 15.517
  1380, 13.844
  1440, 14.677
  1500, 10.826
  1560, 15.741
  1620, 12.882
  1680,  5.890
  1740, 11.593
  1800, 16.524
  1860, 19.598
  1920, 16.099
  1980, 28.303
  2040, 27.461
  2100, 34.268
  2160, 28.832
  2220, 30.907
  2280, 16.029
  2340, 21.651
  2400, 23.615
  2460, 20.042
  2520, 23.798
  2580, 33.271
  2640, 30.349
  2700, 36.065
  2760, 40.169
  2820, 32.790
  2880, 31.263
  2940, 29.696
  3000, 33.099
  3060, 31.382
  3120, 26.896
  3180, 27.353
  3240, 28.098
  3300, 18.547
  3360, 20.450
  3420, 20.560
  3480, 22.069
  3540, 20.947
  3600, 15.340
  3660, 10.513
  3720,  7.533
  3780,  5.757
  3840,  9.694
  3900,  8.762
  3960,  8.006
  4020, 11.464
  4080,  7.783
  4140, 14.807
  4200, 18.295
  4260, 20.009
  4320, 10.386
  4380, 12.847
  4440, 14.803
  4500, 17.980
  4560, 19.076
  4620, 23.552
  4680, 26.065
  4740, 23.548
  4800, 24.743
  4860, 33.404
  4920, 19.249
  4980, 26.164
  5040, 26.524
  5100, 21.848
  5160, 28.340
  5220, 23.693
  5280, 24.704
  5340, 22.402
  5400, 20.852
  5460, 20.269
  5520, 26.353
  5580, 35.094
  5640, 32.857
  5700, 31.898
  5760, 31.735
  5820, 57.601
  5880, 43.014
  5940, 38.617
  6000, 26.442
  6060, 35.047
  6120, 40.583
  6180, 49.590
  6240, 32.504
  6300, 39.912
  6360, 35.780
  6420, 40.861
  6480, 50.206
  6540, 45.445
  6600, 31.660
  6660, 39.115
  6720, 47.936
  6780, 51.771
  6840, 53.092
  6900, 56.293
  6960, 49.968
  7020, 53.685
  7080, 65.101
  7140, 55.435
  7200, 46.347
  7260, 55.183
  7320, 67.743
  7380, 71.657
  7440, 31.380
  7500, 48.576
  7560, 49.186
  7620, 49.025
  7680, 32.782
  7740, 34.507
  7800, 28.205
  7860, 23.167
  7920, 31.931
  7980, 35.192
  8040, 30.425
  8100, 33.313
  8160, 28.689
  8220, 31.551
  8280, 11.781
  8340, 23.034
  8400, 33.223
  8460, 23.042
  8520, -9999.000
  8580, 25.715
  8640, 20.663
  8700, 21.763
  8760, 34.298
  8820, 28.005
  8880,  9.229
  8940, 24.497
  9000, 24.294
  9060, 22.291
  9120, 26.156
  9180, 14.992
  9240, 29.913
  9300, 23.736
  9360, 25.303
  9420, 27.130
  9480, 18.680
  9540, 22.180
  9600, 18.093
  9660, 17.826
  9720, 23.834
  9780, 24.678
  9840, 46.360
  9900, 28.064
  9960, 28.001
 10020, 19.384
 10080, 27.499
 10140, 43.813
 10200, 38.366
 10260, 28.892
 10320, 24.821
 10380, -9999.000
 10440, 17.915
 10500, 25.975
 10560, 35.056
 10620, 24.311
 10680, 32.305
 10740, 26.028
 10800, 26.214
 10860, 32.119
 10920, 17.015
 10980, 22.861
 11040, 44.874
 11100, 25.819
 11160, 24.638
 11220, 29.969
 11280, 36.174
 11340, 28.336
 11400, 17.486
 11460, 21.164
 11520, 31.345
 11580, 31.782
 11640, 33.039
 11700, 33.635
 11760, 45.151
 11820, 40.838
 11880, 42.610
 11940, 77.358
 12000, 98.980
 12060, 97.896
 12120, 111.696
 12180, 114.369
 12240, -9999.000
 12300, 116.416
 12360, 64.771
 12420, 50.816
 12480, 38.185
 12540, 31.157
 12600, 33.106
 12660, 36.359
 12720, 26.185
 12780, 28.021
 12840, 25.170
 12900, 22.117
 12960, 31.321
 13020, 28.699
 13080, 36.992
 13140, 33.183
 13200, 23.214
 13260, 30.147
 13320, 33.327
 13380, 34.532
 13440, 39.491
 13500, 37.145
 13560, 24.003
 13620, 31.767
 13680, 34.599
 13740, 38.523
 13800, 46.988
 13860, 35.004
 13920, 27.187
 13980, 32.112
 14040, 28.462
 14100, 69.634
 14160, 90.060
 14220, 123.130
 14280, 133.762
 14340, 138.618
 14400, 124.472
 14460, 146.970
 14520, 168.306
 14580, 158.082
 14640, 180.132
 14700, 196.269
 14760, 174.584
 14820, 184.228
 14880, 196.056
 14940, 187.058
 15000, 192.177
 15060, 189.612
 15120, 175.794
 15180, 176.392
 15240, 179.788
 15300, 177.105
 15360, 174.507
 15420, 187.143
 15480, 165.830
 15540, 187.032
 15600, 179.961
 15660, 131.085
 15720, 119.774
 15780, 160.349
 15840, 173.660
 15900, -9999.000
 15960, 144.352
 16020, 177.511
 16080, 203.139
 16140, 200.376
 16200, 195.337
 16260, 199.938
 16320, 186.598
 16380, 182.181
 16440, 193.686
 16500, 203.606
 16560, 203.750
 16620, 212.593
 16680, 214.188
 16740, 213.107
 16800, 221.255
 16860, 226.062
 16920, 207.836
 16980, 229.930
 17040, 220.973
 17100, 204.015
 17160, 212.788
 17220, 219.933
 17280, 159.709
 17340, 156.486
 17400, 184.479
 17460, 170.726
 17520, 206.755
 17580, 177.562
 17640, 146.982
 17700, 152.175
 17760, -9999.000
 17820, 150.961
 17880, 161.036
 17940, 166.801
 18000, 145.759
 18060, 130.493
 18120, 145.632
 18180, 113.143
 18240, 130.855
 18300, 140.732
 18360, 139.624
 18420, 137.246
 18480, 138.090
 18540, 149.573
 18600, 154.286
 18660, 154.459
 18720, 163.010
 18780, 169.785
 18840, 154.682
 18900, 183.439
 18960, 189.147
 19020, 201.704
 19080, 224.042
 19140, 221.985
 19200, 201.062
 19260, 229.971
 19320, 234.360
 19380, 221.801
 19440, 248.792
 19500, 262.477
 19560, 242.135
 19620, -9999.000
 19680, 223.122
 19740, 229.335
 19800, 245.973
 19860, 238.335
 19920, 221.832
 19980, 229.166
 20040, 248.688
 20100, 259.683
 20160, 282.768
 20220, 287.872
 20280, 262.124
 20340, 280.325
 20400, 269.546
 20460, 246.895
 20520, 267.257
 20580, 267.551
 20640, 228.597
 20700, 230.709
 20760, 217.185
 20820, 191.470
 20880, 185.718
 20940, 180.376
 21000, 155.136
 21060, 143.437
 21120, 148.558
 21180, 126.559
 21240, 101.655
 21300, 95.304
 21360, 64.951
 21420, 42.506
 21480, 56.497
 21540, 45.287
 21600, 34.646
 21660, 36.322
 21720, 39.240
 21780, 31.434
 21840, 41.442
 21900, 37.502
 21960, 63.607
 22020, 75.745
 22080, 67.800
 22140, 75.845
 22200, 118.319
 22260, 191.813
 22320, 220.659
 22380, 222.797
 22440, 199.463
 22500, 221.681
 22560, 247.671
 22620, 264.143
 22680, 252.865
 22740, 266.423
 22800, 264.405
 22860, 268.336
 22920, 292.818
 22980, 283.909
 23040, 277.139
 23100, 282.656
 23160, 283.942
 23220, 286.193
 23280, 302.063
 23340, 288.235
 23400, 271.806
 23460, 294.235
 23520, 284.509
 23580, 268.299
 23640, 273.852
 23700, 257.896
 23760, 292.661
 23820, 275.499
 23880, 256.411
 23940, 254.059
 24000, 226.795
 24060, 209.081
 24120, 193.947
 24180, 203.771
 24240, 218.275
 24300, 221.897
 24360, 241.339
 24420, 217.206
 24480, 200.665
 24540, 205.641
 24600, 213.512
 24660, 222.742
 24720, 254.753
 24780, 255.612
 24840, 212.235
 24900, 232.911
 24960, 233.290
 25020, 242.961
 25080, 232.869
 25140, 226.258
 25200, 221.227
 25260, 201.599
 25320, 227.775
 25380, 236.661
 25440, 216.622
 25500, 216.782
 25560, 236.595
 25620, 231.619
 25680, 256.477
 25740, 257.889
 25800, 231.821
 25860, 253.581
 25920, 268.340
 25980, 249.073
 26040, 244.190
 26100, 254.410
 26160, 252.150
 26220, 246.508
 26280, 275.113
 26340, 274.456
 26400, 231.803
 26460, 231.270
 26520, 244.596
 26580, 262.578
 26640, 233.340
 26700, 214.599
 26760, 174.357
 26820, 206.765
 26880, 206.358
 26940, 213.514
 27000, -9999.000
 27060, 204.152
 27120, 223.023
 27180, 221.438
 27240, 202.123
 27300, 203.139
 27360, 213.276
 27420, 204.404
 27480, 234.995
 27540, 251.159
 27600, 228.081
 27660, 241.128
 27720, 272.109
 27780, 282.094
 27840, 271.662
 27900, 281.458
 27960, 289.544
 28020, 267.113
 28080, 296.389
 28140, 314.689
 28200, 260.756
 28260, 260.769
 28320, 270.739
 28380, 304.231
 28440, 271.524
 28500, 272.150
 28560, 305.019
 28620, 284.821
 28680, 308.396
 28740, 291.653
 28800, 280.626
 28860, -9999.000
 28920, 320.190
 28980, 312.538
 29040, 296.886
 29100, 276.673
 29160, 289.891
 29220, 303.621
 29280, 317.406
 29340, 334.442
 29400, 286.506
 29460, 313.755
 29520, 312.299
 29580, 286.931
 29640, 334.157
 29700, 297.824
 29760, 337.852
 29820, 301.949
 29880, 326.748
 29940, 359.743
 30000, 322.844
 30060, 356.561
 30120, 348.262
 30180, 346.712
 30240, 348.126
 30300, 324.359
 30360, 316.514
 30420, 322.745
 30480, 350.862
 30540, 342.849
 30600, 300.574
 30660, 299.487
 30720, -9999.000
 30780, 319.198
 30840, 322.688
 30900, 308.953
 30960, 298.080
 31020, 288.717
 31080, 297.973
 31140, 307.116
 31200, 256.624
 31260, 262.211
 31320, 258.543
 31380, 264.767
 31440, 301.918
 31500, 300.489
 31560, 241.667
 31620, 273.972
 31680, 278.979
 31740, 272.188
 31800, 270.832
 31860, 257.500
 31920, 245.958
 31980, 266.190
 32040, 288.357
 32100, 301.114
 32160, 267.577
 32220, 278.325
 32280, 284.221
 32340, 280.940
 32400, 284.271
 32460, 282.890
 32520, 280.921
 32580, 250.894
 32640, 274.456
 32700, 264.099
 32760, 247.815
 32820, 271.215
 32880, 267.951
 32940, 259.462
 33000, 286.647
 33060, 290.399
 33120, 264.122
 33180, 283.745
 33240, 317.719
 33300, 317.551
 33360, 288.209
 33420, 292.892
 33480, 289.831
 33540, 265.101
 33600, 280.424
 33660, 273.308
 33720, 248.679
 33780, 269.436
 33840, 297.087
 33900, 307.595
 33960, 262.745
 34020, 302.158
 34080, 308.765
 34140, 309.944
 34200, 314.419
 34260, 311.894
 34320, 281.320
 34380, -9999.000
 34440, 329.600
 34500, 298.229
 34560, 272.867
 34620, 291.549
 34680, 311.465
 34740, 316.320
 34800, 278.815
 34860, 308.230
 34920, 275.330
 34980, 258.921
 35040, 284.151
 35100, 286.694
 35160, 323.922
 35220, 328.252
 35280, 325.900
 35340, 305.527
 35400, 285.735
 35460, 303.499
 35520, 331.585
 35580, 321.665
 35640, 301.753
 35700, 314.395
 35760, 326.779
 35820, 336.481
 35880, 305.551
 35940, 328.462
 36000, 298.049
 36060, 309.198
 36120, 330.382
 36180, 323.411
 36240, -9999.000
 36300, 325.695
 36360, 379.581
 36420, 365.908
 36480, 329.466
 36540, 338.590
 36600, 355.977
 36660, 367.832
 36720, 349.956
 36780, 349.732
 36840, 365.444
 36900, 356.084
 36960, 342.213
 37020, 336.597
 37080, 352.514
 37140, 351.154
 37200, 370.962
 37260, 354.087
 37320, 343.609
 37380, 345.823
 37440, 373.839
 37500, 387.118
 37560, 364.012
 37620, 364.840
 37680, 388.748
 37740, 385.816
 37800, 340.520
 37860, 352.632
 37920, 395.709
 37980, 384.491
 38040, 370.645
 38100, -9999.000
 38160, 423.119
 38220, 420.751
 38280, 387.474
 38340, 384.151
 38400, 404.912
 38460, 409.950
 38520, 394.885
 38580, 396.708
 38640, 393.976
 38700, 391.767
 38760, 389.640
 38820, 381.005
 38880, 372.635
 38940, 386.061
 39000, 409.035
 39060, 389.852
 39120, 375.590
 39180, 375.953
 39240, 400.788
 39300, 416.861
 39360, 388.322
 39420, 387.023
 39480, 407.465
 39540, 392.051
 39600, 377.489
 39660, 356.782
 39720, 356.401
 39780, 414.440
 39840, 406.888
 39900, 358.915
 39960, 378.406
 40020, 361.462
 40080, 337.968
 40140, 348.944
 40200, 344.383
 40260, 366.626
 40320, 328.656
 40380, 323.970
 40440, 366.591
 40500, 360.316
 40560, 322.662
 40620, 319.363
 40680, 368.594
 40740, 356.283
 40800, 329.466
 40860, 336.582
 40920, 357.336
 40980, 366.241
 41040, 338.131
 41100, 337.703
 41160, 360.920
 41220, 350.601
 41280, 309.425
 41340, 303.936
 41400, 346.368
 41460, 343.768
 41520, 333.531
 41580, 331.444
 41640, 349.110
 41700, 363.007
 41760, 351.365
 41820, 349.589
 41880, 364.706
 41940, 399.803
 42000, 393.149
 42060, 403.167
 42120, 383.389
 42180, 386.423
 42240, 357.044
 42300, 359.035
 42360, 347.614
 42420, 371.193
 42480, 398.438
 42540, 365.584
 42600, 377.966
 42660, 375.434
 42720, 386.251
 42780, 380.674
 42840, 362.686
 42900, 386.421
 42960, 393.788
 43020, 384.404
 43080, 398.916
 43140, 399.772
 43200, 382.220
 43260, 419.326
 43320, 350.831
 43380, 321.319
 43440, 288.559
 43500, 284.235
 43560, 303.049
 43620, 272.958
 43680, 297.294
 43740, 314.099
 43800, 302.850
 43860, 307.001
 43920, 333.660
 43980, 270.653
 44040, 275.921
 44100, 247.019
 44160, 237.429
 44220, 283.536
 44280, 290.674
 44340, 333.508
 44400, 303.322
 44460, 333.109
 44520, 383.487
 44580, 412.975
 44640, 406.206
 44700, 380.133
 44760, 383.402
 44820, 407.830
 44880, 404.959
 44940, 394.579
 45000, 419.338
 45060, 412.094
 45120, 375.901
 45180, 356.583
 45240, 376.085
 45300, 388.469
 45360, 390.324
 45420, 398.753
 45480, -9999.000
 45540, 417.390
 45600, 385.444
 45660, 352.459
 45720, 380.628
 45780, 373.735
 45840, 353.440
 45900, 274.568
 45960, 357.590
 46020, 369.779
 46080, 333.057
 46140, 319.592
 46200, 318.401
 46260, 304.115
 46320, 292.515
 46380, 276.491
 46440, 309.554
 46500, 321.742
 46560, 289.209
 46620, 254.538
 46680, 303.086
 46740, 297.470
 46800, 335.728
 46860, 375.268
 46920, 389.843
 46980, 369.430
 47040, 332.962
 47100, 287.683
 47160, 322.199
 47220, 313.575
 47280, 294.165
 47340, -9999.000
 47400, 305.056
 47460, 301.209
 47520, 280.207
 47580, 272.152
 47640, 274.159
 47700, 241.017
 47760, 233.374
 47820, 209.611
 47880, 245.809
 47940, 249.575
 48000, 245.431
 48060, 233.854
 48120, 239.627
 48180, 228.574
 48240, 229.579
 48300, 209.549
 48360, 220.007
 48420, 198.859
 48480, 193.934
 48540, 214.285
 48600, 211.481
 48660, 187.962
 48720, 141.291
 48780, 160.322
 48840, 173.530
 48900, 166.295
 48960, 172.466
 49020, 125.524
 49080, 169.786
 49140, 158.832
 49200, -9999.000
 49260, 109.163
 49320, 97.269
 49380, 76.637
 49440, 103.750
 49500, 116.129
 49560, 111.234
 49620, 102.567
 49680, 120.798
 49740, 121.060
 49800, 129.670
 49860, 143.687
 49920, 135.830
 49980, 125.677
 50040, 155.703
 50100, 183.883
 50160, 190.626
 50220, 179.077
 50280, 195.542
 50340, 195.229
 50400, 205.606
 50460, 192.697
 50520, 153.139
 50580, 163.017
 50640, 186.240
 50700, 187.038
 50760, 154.087
 50820, 161.667
 50880, 145.571
 50940, 139.523
 51000, 149.568
 51060, 167.161
 51120, 142.813
 51180, 144.766
 51240, 147.989
 51300, 138.190
 51360, 151.876
 51420, 155.448
 51480, 136.561
 51540, 120.297
 51600, 136.462
 51660, 130.254
 51720, 143.931
 51780, 144.414
 51840, 120.944
 51900, 118.375
 51960, 116.988
 52020, 101.002
 52080, 133.511
 52140, 131.417
 52200, 128.088
 52260, 135.111
 52320, 128.089
 52380, 111.184
 52440, 132.101
 52500, 110.089
 52560, 137.780
 52620, 106.786
 52680, 82.350
 52740, 93.159
 52800, 91.188
 52860, -9999.000
 52920, 127.121
 52980, 162.477
 53040, 166.504
 53100, 137.403
 53160, -9999.000
 53220, -9999.000
 53280, -9999.000
 53340, -9999.000
 53400, -9999.000
 53460, -9999.000
 53520, -9999.000
 53580, -9999.000
 53640, -9999.000
 53700, -9999.000
 53760, -9999.000
 53820, -9999.000
 53880, -9999.000
 53940, -9999.000
 54000, -9999.000
 54060, -9999.000
 54120, -9999.000
 54180, -9999.000
 54240, -9999.000
 54300, -9999.000
 54360, -9999.000
 54420, -9999.000
 54480, -9999.000
 54540, -9999.000
 54600, -9999.000
 54660, -9999.000
 54720, -9999.000
 54780, -9999.000
 54840, -9999.000
 54900, -9999.000
 54960, -9999.000
 55020, -9999.000
 55080, -9999.000
 55140, -9999.000
 55200, -9999.000
 55260, -9999.000
 55320, -9999.000
 55380, -9999.000
 55440, -9999.000
 55500, -9999.000
 55560, -9999.000
 55620, -9999.000
 55680, -9999.000
 55740, -9999.000
 55800, -9999.000
 55860, -9999.000
 55920, -9999.000
 55980, -9999.000
 56040, -9999.000
 56100, -9999.000
 56160, -9999.000
 56220, -9999.000
 56280, -9999.000
 56340, -9999.000
 56400, -9999.000
 56460, -9999.000
 56520, -9999.000
 56580, -9999.000
 56640, -9999.000
 56700, -9999.000
 56760, -9999.000
 56820, -9999.000
 56880, -9999.000
 56940, -9999.000
 57000, -9999.000
 57060, -9999.000
 57120, -9999.000
 57180, -9999.000
 57240, -9999.000
 57300, -9999.000
 57360, -9999.000
 57420, -9999.000
 57480, -9999.000
 57540, -9999.000
 57600, -9999.000
 57660, -9999.000
 57720, -9999.000
 57780, -9999.000
 57840, -9999.000
 57900, -9999.000
 57960, -9999.000
 58020, -9999.000
 58080, -9999.000
 58140, -9999.000
 58200, -9999.000
 58260, -9999.000
 58320, -9999.000
 58380, -9999.000
 58440, -9999.000
 58500, -9999.000
 58560, -9999.000
 58620, -9999.000
 58680, -9999.000
 58740, -9999.000
 58800, -9999.000
 58860, -9999.000
 58920, -9999.000
 58980, -9999.000
 59040, -9999.000
 59100, -9999.000
 59160, -9999.000
 59220, -9999.000
 59280, -9999.000
 59340, -9999.000
 59400, -9999.000
 59460, -9999.000
 59520, -9999.000
 59580, -9999.000
 59640, -9999.000
 59700, -9999.000
 59760, -9999.000
 59820, -9999.000
 59880, -9999.000
 59940, -9999.000
 60000, -9999.000
 60060, -9999.000
 60120, -9999.000
 60180, -9999.000
 60240, -9999.000
 60300, -9999.000
 60360, -9999.000
 60420, -9999.000
 60480, -9999.000
 60540, -9999.000
 60600, -9999.000
 60660, -9999.000
 60720, -9999.000
 60780, -9999.000
 60840, -9999.000
 60900, -9999.000
 60960, -9999.000
 61020, -9999.000
 61080, -9999.000
 61140, -9999.000
 61200, -9999.000
 61260, -9999.000
 61320, -9999.000
 61380, -9999.000
 61440, -9999.000
 61500, -9999.000
 61560, -9999.000
 61620, -9999.000
 61680, -9999.000
 61740, -9999.000
 61800, -9999.000
 61860, -9999.000
 61920, -9999.000
 61980, -9999.000
 62040, -9999.000
 62100, -9999.000
 62160, -9999.000
 62220, -9999.000
 62280, -9999.000
 62340, -9999.000
 62400, -9999.000
 62460, -9999.000
 62520, -9999.000
 62580, -9999.000
 62640, -9999.000
 62700, -9999.000
 62760, -9999.000
 62820, -9999.000
 62880, -9999.000
 62940, -9999.000
 63000, -9999.000
 63060, -9999.000
 63120, -9999.000
 63180, -9999.000
 63240, -9999.000
 63300, -9999.000
 63360, -9999.000
 63420, -9999.000
 63480, -9999.000
 63540, -9999.000
 63600, -9999.000
 63660, -9999.000
 63720, -9999.000
 63780, -9999.000
 63840, -9999.000
 63900, -9999.000
 63960, -9999.000
 64020, -9999.000
 64080, -9999.000
 64140, -9999.000
 64200, -9999.000
 64260, -9999.000
 64320, -9999.000
 64380, -9999.000
 64440, -9999.000
 64500, -9999.000
 64560, -9999.000
 64620, -9999.000
 64680, -9999.000
 64740, -9999.000
 64800, -9999.000
 64860, -9999.000
 64920, -9999.000
 64980, -9999.000
 65040, -9999.000
 65100, -9999.000
 65160, -9999.000
 65220, -9999.000
 65280, -9999.000
 65340, -9999.000
 65400, -9999.000
 65460, -9999.000
 65520, -9999.000
 65580, -9999.000
 65640, -9999.000
 65700, -9999.000
 65760, -9999.000
 65820, -9999.000
 65880, -9999.000
 65940, -9999.000
 66000, -9999.000
 66060, -9999.000
 66120, -9999.000
 66180, -9999.000
 66240, -9999.000
 66300, -9999.000
 66360, -9999.000
 66420, -9999.000
 66480, -9999.000
 66540, -9999.000
 66600, -9999.000
 66660, -9999.000
 66720, -9999.000
 66780, -9999.000
 66840, -9999.000
 66900, -9999.000
 66960, -9999.000
 67020, -9999.000
 67080, -9999.000
 67140, -9999.000
 67200, -9999.000
 67260, -9999.000
 67320, -9999.000
 67380, -9999.000
 67440, -9999.000
 67500, -9999.000
 67560, -9999.000
 67620, -9999.000
 67680, -9999.000
 67740, -9999.000
 67800, -9999.000
 67860, -9999.000
 67920, -9999.000
 67980, -9999.000
 68040, -9999.000
 68100, -9999.000
 68160, -9999.000
 68220, -9999.000
 68280, -9999.000
 68340, -9999.000
 68400, -9999.000
 68460, -9999.000
 68520, -9999.000
 68580, -9999.000
 68640, -9999.000
 68700, -9999.000
 68760, -9999.000
 68820, -9999.000
 68880, -9999.000
 68940, -9999.000
 69000, -9999.000
 69060, -9999.000
 69120, -9999.000
 69180, -9999.000
 69240, -9999.000
 69300, -9999.000
 69360, -9999.000
 69420, -9999.000
 69480, -9999.000
 69540, -9999.000
 69600, -9999.000
 69660, -9999.000
 69720, -9999.000
 69780, -9999.000
 69840, -9999.000
 69900, -9999.000
 69960, -9999.000
 70020, -9999.000
 70080, -9999.000
 70140, -9999.000
 70200, -9999.000
 70260, -9999.000
 70320, -9999.000
 70380, -9999.000
 70440, -9999.000
 70500, -9999.000
 70560, -9999.000
 70620, -9999.000
 70680, -9999.000
 70740, -9999.000
 70800, -9999.000
 70860, -9999.000
 70920, -9999.000
 70980, -9999.000
 71040, -9999.000
 71100, -9999.000
 71160, -9999.000
 71220, -9999.000
 71280, -9999.000
 71340, -9999.000
 71400, -9999.000
 71460, -9999.000
 71520, -9999.000
 71580, -9999.000
 71640, -9999.000
 71700, -9999.000
 71760, -9999.000
 71820, -9999.000
 71880, -9999.000
 71940, -9999.000
 72000, -9999.000
 72060, -9999.000
 72120, -9999.000
 72180, -9999.000
 72240, -9999.000
 72300, -9999.000
 72360, -9999.000
 72420, -9999.000
 72480, -9999.000
 72540, -9999.000
 72600, -9999.000
 72660, -9999.000
 72720, -9999.000
 72780, -9999.000
 72840, -9999.000
 72900, -9999.000
 72960, -9999.000
 73020, -9999.000
 73080, -9999.000
 73140, -9999.000
 73200, -9999.000
 73260, -9999.000
 73320, -9999.000
 73380, -9999.000
 73440, -9999.000
 73500, -9999.000
 73560, -9999.000
 73620, -9999.000
 73680, -9999.000
 73740, -9999.000
 73800, -9999.000
 73860, -9999.000
 73920, -9999.000
 73980, -9999.000
 74040, -9999.000
 74100, -9999.000
 74160, -9999.000
 74220, -9999.000
 74280, -9999.000
 74340, -9999.000
 74400, -9999.000
 74460, -9999.000
 74520, -9999.000
 74580, -9999.000
 74640, -9999.000
 74700, -9999.000
 74760, -9999.000
 74820, -9999.000
 74880, -9999.000
 74940, -9999.000
 75000, -9999.000
 75060, -9999.000
 75120, -9999.000
 75180, -9999.000
 75240, -9999.000
 75300, -9999.000
 75360, -9999.000
 75420, -9999.000
 75480, -9999.000
 75540, -9999.000
 75600, -9999.000
 75660, -9999.000
 75720, -9999.000
 75780, -9999.000
 75840, -9999.000
 75900, -9999.000
 75960, -9999.000
 76020, -9999.000
 76080, -9999.000
 76140, -9999.000
 76200, -9999.000
 76260, -9999.000
 76320, 16.472
 76380,  8.061
 76440,  8.925
 76500,  7.997
 76560, 11.479
 76620, 12.494
 76680, 17.378
 76740, 13.349
 76800, 12.859
 76860, 13.178
 76920, 16.878
 76980, 13.051
 77040, 13.419
 77100, 10.481
 77160,  4.812
 77220,  6.629
 77280,  9.616
 77340,  9.851
 77400, 13.193
 77460, 10.348
 77520, 11.501
 77580, 12.668
 77640,  5.499
 77700, 10.390
 77760, 12.457
 77820, 12.362
 77880, 13.106
 77940, 10.325
 78000, 13.952
 78060, 11.197
 78120, 14.115
 78180, 12.025
 78240, 10.220
 78300, 12.895
 78360, 11.143
 78420,  8.774
 78480, 12.442
 78540, 12.959
 78600,  7.930
 78660,  7.889
 78720, 10.930
 78780,  8.456
 78840,  5.139
 78900,  8.812
 78960,  9.779
 79020, 10.108
 79080, -9999.000
 79140, -9999.000
 79200, -9999.000
 79260, -9999.000
 79320, -9999.000
 79380, -9999.000
 79440, -9999.000
 79500, -9999.000
 79560, -9999.000
 79620, -9999.000
 79680, -9999.000
 79740, -9999.000
 79800, -9999.000
 79860, -9999.000
 79920, -9999.000
 79980, -9999.000
 80040, -9999.000
 80100, -9999.000
 80160, -9999.000
 80220, -9999.000
 80280, -9999.000
 80340, -9999.000
 80400, -9999.000
 80460, -9999.000
 80520, -9999.000
 80580, -9999.000
 80640, -9999.000
 80700, -9999.000
 80760, -9999.000
 80820, -9999.000
 80880, -9999.000
 80940, -9999.000
 81000, -9999.000
 81060, -9999.000
 81120, -9999.000
 81180, -9999.000
 81240, -9999.000
 81300, -9999.000
 81360, -9999.000
 81420, -9999.000
 81480, -9999.000
 81540, -9999.000
 81600, -9999.000
 81660, -9999.000
 81720, -9999.000
 81780, -9999.000
 81840, -9999.000
 81900, -9999.000
 81960, -9999.000
 82020, -9999.000
 82080, -9999.000
 82140, -9999.000
 82200, -9999.000
 82260, -9999.000
 82320, -9999.000
 82380, -9999.000
 82440, -9999.000
 82500, -9999.000
 82560, -9999.000
 82620, -9999.000
 82680, -9999.000
 82740, -9999.000
 82800, -9999.000
 82860, -9999.000
 82920, -9999.000
 82980, -9999.000
 83040, -9999.000
 83100, -9999.000
 83160, -9999.000
 83220, -9999.000
 83280, -9999.000
 83340, -9999.000
 83400, -9999.000
 83460, -9999.000
 83520, 12.392
 83580, 11.511
 83640, 10.054
 83700, 10.576
 83760,  9.646
 83820,  8.375
 83880,  9.187
 83940,  7.542
 84000,  9.285
 84060, 10.924
 84120, 11.482
 84180, 12.424
 84240, 13.397
 84300, 14.600
 84360, 15.916
 84420, 14.333
 84480, 15.265
 84540,  8.481
 84600, 20.806
 84660, 34.605
 84720, 22.997
 84780, 18.495
 84840, 14.300
 84900, -9999.000
 84960, 29.632
 85020, 20.539
 85080, 13.887
 85140, 26.925
 85200, 27.828
 85260, 11.156
 85320, 26.541
 85380, 28.941
 85440, 15.111
 85500, 64.137
 85560, 38.220
 85620, 35.696
 85680, 28.742
 85740, 39.022
 85800, 19.946
 85860,  7.982
 85920,  9.560
 85980, 10.953
 86040, 14.840
 86100, 41.007
 86160, 58.403
 86220,  8.103
 86280, 12.373
 86340, 10.403
