33, 1001
Michael A Robinson, Chris Jernigan, Subi Thakali
NOAA ESRL Chemical Sciences Laboratory and CIRES, U. of Colorado
NOAA Iodide CIMS Instrument
USOS
1, 1
2024, 08, 17, 2024, 08, 20
1
starttime_UTC, seconds_past_midnight, seconds_of_day_since_00:00:00_UTC
1
1
-9999
HCOOH_NOAACIMS, pptv, Gas_HCOOH_InSitu_S_AVMR, 
0
18
PI_CONTACT_INFO: 325 Broadway, R/CSD 7, Boulder, Colorado 80305; michael.a.robinson@noaa.gov; chris.jernigan@noaa.gov;
PLATFORM: NOAA CSL Mobile Lab
LOCATION: SLC, Utah
ASSOCIATED_DATA: 1Hz data also available on request.
INSTRUMENT_INFO: NOAA I- ToF CIMS
DATA_INFO: All data in parts per trillion by volume (pptv). 1 Hz data is available upon request.
UNCERTAINTY: TBD
ULOD_FLAG: -7777
ULOD_VALUE: N/A
LLOD_FLAG: -8888
LLOD_VALUE: N/A
DM_CONTACT_INFO: Nathan Howard; nathan.h.howard@noaa.gov
PROJECT_INFO: USOS, summer 2024. https://csl.noaa.gov/groups/csl7/measurements/2024usos/
STIPULATIONS_ON_USE: Users are strongly encouraged to contact the PI for proper data usage.
OTHER_COMMENTS: 
REVISION: RA
RA: Preliminary Data; For in-field use only
starttime_UTC, HCOOH_NOAACIMS
     0, 680.365
    60, 667.276
   120, 505.969
   180, 656.579
   240, 602.044
   300, 619.867
   360, 613.746
   420, 590.483
   480, 670.337
   540, 596.284
   600, 688.711
   660, 601.165
   720, 681.272
   780, 548.775
   840, 684.313
   900, 457.213
   960, 623.948
  1020, 587.364
  1080, 661.953
  1140, 576.241
  1200, 612.568
  1260, 608.045
  1320, 603.958
  1380, 553.339
  1440, 578.035
  1500, 554.876
  1560, -9999.000
  1620, -9999.000
  1680, -9999.000
  1740, -9999.000
  1800, -9999.000
  1860, -9999.000
  1920, -9999.000
  1980, -9999.000
  2040, -9999.000
  2100, -9999.000
  2160, -9999.000
  2220, -9999.000
  2280, -9999.000
  2340, -9999.000
  2400, -9999.000
  2460, -9999.000
  2520, -9999.000
  2580, -9999.000
  2640, -9999.000
  2700, -9999.000
  2760, -9999.000
  2820, -9999.000
  2880, -9999.000
  2940, -9999.000
  3000, -9999.000
  3060, -9999.000
  3120, -9999.000
  3180, -9999.000
  3240, -9999.000
  3300, -9999.000
  3360, -9999.000
  3420, -9999.000
  3480, -9999.000
  3540, -9999.000
  3600, -9999.000
  3660, -9999.000
  3720, -9999.000
  3780, -9999.000
  3840, -9999.000
  3900, -9999.000
  3960, -9999.000
  4020, -9999.000
  4080, -9999.000
  4140, -9999.000
  4200, -9999.000
  4260, -9999.000
  4320, -9999.000
  4380, -9999.000
  4440, -9999.000
  4500, -9999.000
  4560, -9999.000
  4620, -9999.000
  4680, -9999.000
  4740, -9999.000
  4800, -9999.000
  4860, -9999.000
  4920, -9999.000
  4980, -9999.000
  5040, -9999.000
  5100, -9999.000
  5160, -9999.000
  5220, -9999.000
  5280, -9999.000
  5340, -9999.000
  5400, -9999.000
  5460, -9999.000
  5520, -9999.000
  5580, -9999.000
  5640, -9999.000
  5700, -9999.000
  5760, -9999.000
  5820, -9999.000
  5880, -9999.000
  5940, -9999.000
  6000, -9999.000
  6060, -9999.000
  6120, -9999.000
  6180, -9999.000
  6240, -9999.000
  6300, -9999.000
  6360, -9999.000
  6420, -9999.000
  6480, -9999.000
  6540, -9999.000
  6600, -9999.000
  6660, -9999.000
  6720, -9999.000
  6780, -9999.000
  6840, -9999.000
  6900, -9999.000
  6960, -9999.000
  7020, -9999.000
  7080, -9999.000
  7140, -9999.000
  7200, -9999.000
  7260, -9999.000
  7320, -9999.000
  7380, -9999.000
  7440, -9999.000
  7500, -9999.000
  7560, -9999.000
  7620, -9999.000
  7680, -9999.000
  7740, -9999.000
  7800, -9999.000
  7860, -9999.000
  7920, -9999.000
  7980, -9999.000
  8040, -9999.000
  8100, -9999.000
  8160, -9999.000
  8220, -9999.000
  8280, -9999.000
  8340, -9999.000
  8400, -9999.000
  8460, -9999.000
  8520, -9999.000
  8580, -9999.000
  8640, -9999.000
  8700, -9999.000
  8760, -9999.000
  8820, -9999.000
  8880, -9999.000
  8940, -9999.000
  9000, -9999.000
  9060, -9999.000
  9120, -9999.000
  9180, -9999.000
  9240, -9999.000
  9300, -9999.000
  9360, -9999.000
  9420, -9999.000
  9480, -9999.000
  9540, -9999.000
  9600, -9999.000
  9660, -9999.000
  9720, -9999.000
  9780, -9999.000
  9840, -9999.000
  9900, -9999.000
  9960, -9999.000
 10020, -9999.000
 10080, -9999.000
 10140, -9999.000
 10200, -9999.000
 10260, -9999.000
 10320, -9999.000
 10380, -9999.000
 10440, -9999.000
 10500, -9999.000
 10560, -9999.000
 10620, -9999.000
 10680, -9999.000
 10740, -9999.000
 10800, -9999.000
 10860, -9999.000
 10920, -9999.000
 10980, -9999.000
 11040, -9999.000
 11100, -9999.000
 11160, -9999.000
 11220, -9999.000
 11280, -9999.000
 11340, -9999.000
 11400, -9999.000
 11460, -9999.000
 11520, -9999.000
 11580, -9999.000
 11640, -9999.000
 11700, -9999.000
 11760, -9999.000
 11820, -9999.000
 11880, -9999.000
 11940, -9999.000
 12000, -9999.000
 12060, -9999.000
 12120, -9999.000
 12180, -9999.000
 12240, -9999.000
 12300, -9999.000
 12360, -9999.000
 12420, -9999.000
 12480, -9999.000
 12540, -9999.000
 12600, -9999.000
 12660, -9999.000
 12720, -9999.000
 12780, -9999.000
 12840, -9999.000
 12900, -9999.000
 12960, -9999.000
 13020, -9999.000
 13080, -9999.000
 13140, -9999.000
 13200, -9999.000
 13260, -9999.000
 13320, -9999.000
 13380, -9999.000
 13440, -9999.000
 13500, -9999.000
 13560, -9999.000
 13620, -9999.000
 13680, -9999.000
 13740, -9999.000
 13800, -9999.000
 13860, -9999.000
 13920, -9999.000
 13980, -9999.000
 14040, -9999.000
 14100, -9999.000
 14160, -9999.000
 14220, -9999.000
 14280, -9999.000
 14340, -9999.000
 14400, -9999.000
 14460, -9999.000
 14520, -9999.000
 14580, -9999.000
 14640, -9999.000
 14700, -9999.000
 14760, -9999.000
 14820, -9999.000
 14880, -9999.000
 14940, -9999.000
 15000, -9999.000
 15060, -9999.000
 15120, -9999.000
 15180, -9999.000
 15240, -9999.000
 15300, -9999.000
 15360, -9999.000
 15420, -9999.000
 15480, -9999.000
 15540, -9999.000
 15600, -9999.000
 15660, -9999.000
 15720, -9999.000
 15780, -9999.000
 15840, -9999.000
 15900, -9999.000
 15960, -9999.000
 16020, -9999.000
 16080, -9999.000
 16140, -9999.000
 16200, -9999.000
 16260, -9999.000
 16320, -9999.000
 16380, -9999.000
 16440, -9999.000
 16500, -9999.000
 16560, -9999.000
 16620, -9999.000
 16680, -9999.000
 16740, -9999.000
 16800, -9999.000
 16860, -9999.000
 16920, -9999.000
 16980, -9999.000
 17040, -9999.000
 17100, -9999.000
 17160, -9999.000
 17220, -9999.000
 17280, -9999.000
 17340, -9999.000
 17400, -9999.000
 17460, -9999.000
 17520, -9999.000
 17580, -9999.000
 17640, -9999.000
 17700, -9999.000
 17760, -9999.000
 17820, -9999.000
 17880, -9999.000
 17940, -9999.000
 18000, -9999.000
 18060, -9999.000
 18120, -9999.000
 18180, -9999.000
 18240, -9999.000
 18300, -9999.000
 18360, -9999.000
 18420, -9999.000
 18480, -9999.000
 18540, -9999.000
 18600, -9999.000
 18660, -9999.000
 18720, -9999.000
 18780, -9999.000
 18840, -9999.000
 18900, -9999.000
 18960, -9999.000
 19020, -9999.000
 19080, -9999.000
 19140, -9999.000
 19200, -9999.000
 19260, -9999.000
 19320, -9999.000
 19380, -9999.000
 19440, -9999.000
 19500, -9999.000
 19560, -9999.000
 19620, -9999.000
 19680, -9999.000
 19740, -9999.000
 19800, -9999.000
 19860, -9999.000
 19920, -9999.000
 19980, -9999.000
 20040, -9999.000
 20100, -9999.000
 20160, -9999.000
 20220, -9999.000
 20280, -9999.000
 20340, -9999.000
 20400, -9999.000
 20460, -9999.000
 20520, -9999.000
 20580, -9999.000
 20640, -9999.000
 20700, -9999.000
 20760, -9999.000
 20820, -9999.000
 20880, -9999.000
 20940, -9999.000
 21000, -9999.000
 21060, -9999.000
 21120, -9999.000
 21180, -9999.000
 21240, -9999.000
 21300, -9999.000
 21360, -9999.000
 21420, -9999.000
 21480, -9999.000
 21540, -9999.000
 21600, -9999.000
 21660, -9999.000
 21720, -9999.000
 21780, -9999.000
 21840, -9999.000
 21900, -9999.000
 21960, -9999.000
 22020, -9999.000
 22080, -9999.000
 22140, -9999.000
 22200, -9999.000
 22260, -9999.000
 22320, -9999.000
 22380, -9999.000
 22440, -9999.000
 22500, -9999.000
 22560, -9999.000
 22620, -9999.000
 22680, -9999.000
 22740, -9999.000
 22800, -9999.000
 22860, 756.938
 22920, -9999.000
 22980, -9999.000
 23040, -9999.000
 23100, -9999.000
 23160, -9999.000
 23220, -9999.000
 23280, -9999.000
 23340, 1384.298
 23400, 1147.293
 23460, -9999.000
 23520, 795.039
 23580, 704.898
 23640, 675.466
 23700, 646.078
 23760, 599.817
 23820, 584.969
 23880, 587.793
 23940, 622.397
 24000, 744.788
 24060, 701.284
 24120, 776.700
 24180, 860.340
 24240, 888.537
 24300, 811.979
 24360, 729.206
 24420, 921.212
 24480, 836.722
 24540, 928.945
 24600, 932.301
 24660, 844.336
 24720, 782.109
 24780, 731.130
 24840, 745.173
 24900, 783.314
 24960, 780.296
 25020, 731.438
 25080, 700.636
 25140, 670.103
 25200, 671.092
 25260, 714.798
 25320, 784.297
 25380, 818.711
 25440, 895.386
 25500, 843.284
 25560, 853.349
 25620, 888.805
 25680, 922.167
 25740, 952.386
 25800, 1011.468
 25860, 1036.561
 25920, 906.162
 25980, 756.219
 26040, 705.344
 26100, 786.466
 26160, 804.276
 26220, 747.101
 26280, 710.408
 26340, 734.953
 26400, 752.694
 26460, 827.509
 26520, 871.677
 26580, 819.300
 26640, 892.997
 26700, 881.698
 26760, 751.317
 26820, 719.772
 26880, 720.297
 26940, 809.671
 27000, 798.338
 27060, 765.975
 27120, -9999.000
 27180, 854.490
 27240, 726.050
 27300, 966.777
 27360, 862.892
 27420, 744.378
 27480, 724.232
 27540, 724.573
 27600, 726.546
 27660, 691.442
 27720, 671.481
 27780, 690.119
 27840, 652.619
 27900, 677.436
 27960, 705.044
 28020, 687.548
 28080, 669.598
 28140, 650.138
 28200, 677.450
 28260, 655.355
 28320, 661.097
 28380, 657.185
 28440, 657.209
 28500, 695.335
 28560, 662.977
 28620, 642.220
 28680, 628.569
 28740, 629.738
 28800, 633.385
 28860, 631.210
 28920, 659.422
 28980, -9999.000
 29040, 674.120
 29100, 666.329
 29160, 666.052
 29220, 670.884
 29280, 670.382
 29340, 674.857
 29400, 698.067
 29460, 713.842
 29520, 783.732
 29580, 775.881
 29640, 747.025
 29700, 785.463
 29760, 917.937
 29820, 820.575
 29880, 778.934
 29940, 791.582
 30000, 801.615
 30060, 811.078
 30120, 837.556
 30180, 869.439
 30240, 791.558
 30300, 803.032
 30360, 772.762
 30420, 751.850
 30480, 790.145
 30540, 791.308
 30600, 795.646
 30660, 775.794
 30720, 769.027
 30780, 783.959
 30840, -9999.000
 30900, 778.651
 30960, 783.010
 31020, 813.428
 31080, 839.618
 31140, 777.148
 31200, 780.020
 31260, 773.035
 31320, 803.683
 31380, 828.203
 31440, 809.613
 31500, 812.555
 31560, 782.822
 31620, 782.237
 31680, 802.082
 31740, 798.404
 31800, 799.149
 31860, 785.780
 31920, 808.969
 31980, 787.342
 32040, 768.424
 32100, 775.805
 32160, 773.347
 32220, 747.827
 32280, 773.284
 32340, 753.194
 32400, 765.579
 32460, 762.924
 32520, 737.118
 32580, 747.757
 32640, 730.337
 32700, 743.831
 32760, 746.712
 32820, 787.393
 32880, 744.715
 32940, 741.624
 33000, 747.062
 33060, 731.154
 33120, 744.967
 33180, 767.387
 33240, 752.410
 33300, 750.498
 33360, 771.697
 33420, 753.844
 33480, 759.077
 33540, 791.844
 33600, 785.938
 33660, 779.600
 33720, 769.174
 33780, 766.042
 33840, 768.711
 33900, 782.427
 33960, 793.805
 34020, 787.164
 34080, 788.659
 34140, 793.801
 34200, 785.944
 34260, 808.834
 34320, 821.106
 34380, 795.947
 34440, 800.658
 34500, 760.003
 34560, 819.870
 34620, 836.574
 34680, 842.042
 34740, 863.421
 34800, 884.809
 34860, 863.165
 34920, 872.018
 34980, 884.049
 35040, 912.424
 35100, 933.515
 35160, 964.754
 35220, 1042.929
 35280, 1013.508
 35340, 1005.032
 35400, 1026.696
 35460, 1121.680
 35520, 1158.831
 35580, 1165.444
 35640, 1156.884
 35700, 1135.361
 35760, 1237.825
 35820, 1253.811
 35880, 1225.997
 35940, 1154.424
 36000, 1268.946
 36060, 1266.737
 36120, 1243.638
 36180, 1233.715
 36240, 1262.113
 36300, 1274.882
 36360, 1321.465
 36420, 1275.402
 36480, 1338.205
 36540, 1261.875
 36600, 1310.572
 36660, 1352.473
 36720, 1379.861
 36780, 1356.112
 36840, 1400.068
 36900, 1406.977
 36960, 1296.505
 37020, 1268.083
 37080, 1308.722
 37140, 1251.561
 37200, 1313.857
 37260, 1296.990
 37320, 1247.878
 37380, 1284.998
 37440, 1290.463
 37500, 1223.702
 37560, 1214.498
 37620, 1277.340
 37680, 1314.776
 37740, 1180.545
 37800, 1197.154
 37860, 1227.927
 37920, 1209.323
 37980, 1149.147
 38040, 1210.309
 38100, 1275.962
 38160, 1310.136
 38220, -9999.000
 38280, 1417.056
 38340, 1403.898
 38400, 1427.647
 38460, 1428.061
 38520, 1392.003
 38580, 1440.014
 38640, 1437.728
 38700, 1424.042
 38760, 1476.889
 38820, 1476.963
 38880, 1464.962
 38940, 1411.110
 39000, 1409.772
 39060, 1434.724
 39120, 1422.064
 39180, 1519.186
 39240, 1528.797
 39300, 1511.294
 39360, 1568.242
 39420, 1581.371
 39480, 1548.667
 39540, 1553.703
 39600, 1586.692
 39660, 1587.445
 39720, 1589.870
 39780, 1601.336
 39840, 1629.755
 39900, 1662.877
 39960, 1648.377
 40020, 1615.010
 40080, 1733.767
 40140, 1735.418
 40200, 1713.955
 40260, 1737.761
 40320, 1748.818
 40380, 1790.731
 40440, 1771.053
 40500, 1756.505
 40560, 1800.286
 40620, 1823.022
 40680, 1769.434
 40740, 1753.161
 40800, 1693.460
 40860, 1738.979
 40920, 1703.164
 40980, 1657.551
 41040, 1626.652
 41100, 1604.364
 41160, 1602.583
 41220, 1620.357
 41280, 1602.572
 41340, 1579.253
 41400, 1563.634
 41460, 1545.710
 41520, 1553.972
 41580, 1613.762
 41640, 1575.979
 41700, 1572.334
 41760, 1611.831
 41820, 1615.097
 41880, 1622.896
 41940, -9999.000
 42000, 1615.362
 42060, 1650.427
 42120, 1640.350
 42180, 1654.377
 42240, 1657.041
 42300, 1630.457
 42360, 1628.277
 42420, 1651.476
 42480, 1687.046
 42540, 1629.084
 42600, 1611.619
 42660, 1636.283
 42720, 1649.554
 42780, 1625.797
 42840, 1621.504
 42900, 1675.093
 42960, 1683.411
 43020, 1651.140
 43080, 1655.587
 43140, 1672.891
 43200, 1698.460
 43260, 1749.322
 43320, 1715.960
 43380, 1671.279
 43440, 1686.763
 43500, 1690.734
 43560, 1666.482
 43620, 1649.653
 43680, 1633.836
 43740, 1595.642
 43800, 1620.450
 43860, 1620.494
 43920, 1579.336
 43980, 1628.605
 44040, 1662.121
 44100, 1610.477
 44160, 1639.524
 44220, 1661.175
 44280, 1642.785
 44340, 1650.284
 44400, 1665.104
 44460, 1716.494
 44520, 1733.015
 44580, 1698.396
 44640, 1697.208
 44700, 1716.352
 44760, 1786.640
 44820, 1755.507
 44880, 1766.812
 44940, 1767.135
 45000, 1773.770
 45060, 1715.285
 45120, 1698.045
 45180, 1728.761
 45240, 1752.657
 45300, 1778.690
 45360, 1772.723
 45420, 1802.417
 45480, 1830.934
 45540, 1802.295
 45600, -9999.000
 45660, 1839.808
 45720, 1837.432
 45780, 1864.479
 45840, 1861.808
 45900, 1846.688
 45960, 1853.859
 46020, 1870.280
 46080, 1845.583
 46140, 1832.561
 46200, 1831.068
 46260, 1805.337
 46320, 1834.158
 46380, 1842.733
 46440, 1858.555
 46500, 1887.171
 46560, 1913.320
 46620, 1886.814
 46680, 1828.759
 46740, 1813.253
 46800, 1833.151
 46860, 1730.167
 46920, 1606.200
 46980, 1642.593
 47040, 1559.368
 47100, 1519.792
 47160, 1433.279
 47220, 1386.261
 47280, 1365.738
 47340, 1310.358
 47400, 1279.690
 47460, -9999.000
 47520, 1266.933
 47580, 1283.179
 47640, 1296.486
 47700, 1295.858
 47760, 1246.091
 47820, 1234.662
 47880, 1238.486
 47940, 1193.209
 48000, 1227.139
 48060, 1256.298
 48120, 1196.185
 48180, 1199.859
 48240, 1174.868
 48300, 1160.748
 48360, 1191.871
 48420, 1204.797
 48480, 1138.337
 48540, 1168.717
 48600, 1163.845
 48660, 1165.922
 48720, 1216.989
 48780, 1201.526
 48840, 1181.293
 48900, 1129.078
 48960, 1129.393
 49020, 1095.306
 49080, 1051.007
 49140, 1005.192
 49200, 1012.212
 49260, 992.780
 49320, -9999.000
 49380, 1004.059
 49440, 1010.924
 49500, 1028.893
 49560, 1020.518
 49620, 1025.074
 49680, 975.790
 49740, 985.565
 49800, 960.739
 49860, 960.560
 49920, 988.191
 49980, 937.994
 50040, 940.944
 50100, 925.568
 50160, 887.234
 50220, 900.965
 50280, 865.468
 50340, 898.198
 50400, 905.586
 50460, 890.068
 50520, 891.624
 50580, 897.436
 50640, 903.832
 50700, 904.640
 50760, 1016.613
 50820, 1022.587
 50880, 1054.767
 50940, 1120.110
 51000, 1055.423
 51060, 1097.330
 51120, 1118.545
 51180, 1206.991
 51240, 1182.813
 51300, 1174.299
 51360, 1238.608
 51420, 1187.992
 51480, 1139.832
 51540, 1148.924
 51600, 1122.925
 51660, 1154.414
 51720, 1129.627
 51780, 1120.032
 51840, 1106.607
 51900, 1059.321
 51960, 1064.336
 52020, 1062.914
 52080, 1123.214
 52140, 1180.216
 52200, 1102.579
 52260, 1109.949
 52320, 1119.104
 52380, 1069.040
 52440, 1116.005
 52500, 1112.865
 52560, 1101.796
 52620, 1109.304
 52680, 1004.580
 52740, 983.928
 52800, 984.551
 52860, 1014.095
 52920, 1097.393
 52980, -9999.000
 53040, 1099.714
 53100, 1084.114
 53160, 1043.624
 53220, 1121.346
 53280, 1151.844
 53340, 1144.538
 53400, 1160.537
 53460, 1120.672
 53520, 1116.722
 53580, 1084.994
 53640, 1110.001
 53700, 1152.899
 53760, 1226.828
 53820, 1277.262
 53880, 1275.741
 53940, 1246.199
 54000, 1184.708
 54060, 1155.390
 54120, 1148.476
 54180, 1296.065
 54240, 1324.214
 54300, 1332.022
 54360, 1324.282
 54420, 1346.651
 54480, 1393.595
 54540, 1477.887
 54600, 1487.806
 54660, 1433.750
 54720, 1407.272
 54780, 1420.027
 54840, 1478.310
 54900, 1327.934
 54960, 1347.121
 55020, 1341.587
 55080, 1339.403
 55140, 1361.526
 55200, 1250.480
 55260, 1218.387
 55320, 1333.273
 55380, 1314.329
 55440, 1342.204
 55500, 1310.744
 55560, 1245.547
 55620, 1255.575
 55680, 1112.002
 55740, 1013.508
 55800, 1039.576
 55860, 1052.589
 55920, 1137.843
 55980, 1142.928
 56040, 1121.862
 56100, 925.488
 56160, 904.762
 56220, 883.489
 56280, 874.784
 56340, 890.218
 56400, 872.709
 56460, 867.323
 56520, 848.437
 56580, 836.639
 56640, 835.138
 56700, -9999.000
 56760, 877.975
 56820, 881.674
 56880, 891.249
 56940, 862.227
 57000, 834.779
 57060, 863.955
 57120, 874.991
 57180, 880.808
 57240, 862.836
 57300, 837.508
 57360, 828.945
 57420, 861.951
 57480, 856.364
 57540, 884.665
 57600, 933.671
 57660, 954.362
 57720, 941.727
 57780, 975.228
 57840, 1014.128
 57900, 971.615
 57960, 970.528
 58020, 965.845
 58080, 1028.579
 58140, 1101.768
 58200, 1027.155
 58260, 943.701
 58320, 934.597
 58380, 1019.390
 58440, -9999.000
 58500, -9999.000
 58560, -9999.000
 58620, -9999.000
 58680, -9999.000
 58740, -9999.000
 58800, -9999.000
 58860, -9999.000
 58920, -9999.000
 58980, -9999.000
 59040, -9999.000
 59100, -9999.000
 59160, -9999.000
 59220, -9999.000
 59280, -9999.000
 59340, -9999.000
 59400, -9999.000
 59460, -9999.000
 59520, -9999.000
 59580, -9999.000
 59640, -9999.000
 59700, -9999.000
 59760, -9999.000
 59820, -9999.000
 59880, -9999.000
 59940, -9999.000
 60000, -9999.000
 60060, -9999.000
 60120, -9999.000
 60180, -9999.000
 60240, -9999.000
 60300, -9999.000
 60360, -9999.000
 60420, -9999.000
 60480, -9999.000
 60540, -9999.000
 60600, -9999.000
 60660, -9999.000
 60720, -9999.000
 60780, -9999.000
 60840, -9999.000
 60900, -9999.000
 60960, -9999.000
 61020, -9999.000
 61080, -9999.000
 61140, -9999.000
 61200, -9999.000
 61260, -9999.000
 61320, -9999.000
 61380, -9999.000
 61440, -9999.000
 61500, -9999.000
 61560, -9999.000
 61620, -9999.000
 61680, -9999.000
 61740, -9999.000
 61800, -9999.000
 61860, -9999.000
 61920, -9999.000
 61980, -9999.000
 62040, -9999.000
 62100, -9999.000
 62160, -9999.000
 62220, -9999.000
 62280, -9999.000
 62340, -9999.000
 62400, -9999.000
 62460, -9999.000
 62520, -9999.000
 62580, -9999.000
 62640, -9999.000
 62700, -9999.000
 62760, -9999.000
 62820, -9999.000
 62880, -9999.000
 62940, -9999.000
 63000, -9999.000
 63060, -9999.000
 63120, -9999.000
 63180, -9999.000
 63240, -9999.000
 63300, -9999.000
 63360, -9999.000
 63420, -9999.000
 63480, -9999.000
 63540, -9999.000
 63600, -9999.000
 63660, -9999.000
 63720, -9999.000
 63780, -9999.000
 63840, -9999.000
 63900, -9999.000
 63960, -9999.000
 64020, -9999.000
 64080, -9999.000
 64140, -9999.000
 64200, -9999.000
 64260, -9999.000
 64320, -9999.000
 64380, -9999.000
 64440, -9999.000
 64500, -9999.000
 64560, -9999.000
 64620, -9999.000
 64680, -9999.000
 64740, -9999.000
 64800, -9999.000
 64860, -9999.000
 64920, -9999.000
 64980, -9999.000
 65040, -9999.000
 65100, -9999.000
 65160, -9999.000
 65220, -9999.000
 65280, -9999.000
 65340, -9999.000
 65400, -9999.000
 65460, -9999.000
 65520, -9999.000
 65580, -9999.000
 65640, -9999.000
 65700, -9999.000
 65760, -9999.000
 65820, -9999.000
 65880, -9999.000
 65940, -9999.000
 66000, -9999.000
 66060, -9999.000
 66120, -9999.000
 66180, -9999.000
 66240, -9999.000
 66300, -9999.000
 66360, -9999.000
 66420, -9999.000
 66480, -9999.000
 66540, -9999.000
 66600, -9999.000
 66660, -9999.000
 66720, -9999.000
 66780, -9999.000
 66840, -9999.000
 66900, -9999.000
 66960, -9999.000
 67020, -9999.000
 67080, -9999.000
 67140, -9999.000
 67200, -9999.000
 67260, -9999.000
 67320, -9999.000
 67380, -9999.000
 67440, -9999.000
 67500, -9999.000
 67560, -9999.000
 67620, -9999.000
 67680, -9999.000
 67740, -9999.000
 67800, -9999.000
 67860, -9999.000
 67920, -9999.000
 67980, -9999.000
 68040, -9999.000
 68100, -9999.000
 68160, -9999.000
 68220, -9999.000
 68280, -9999.000
 68340, -9999.000
 68400, -9999.000
 68460, -9999.000
 68520, -9999.000
 68580, -9999.000
 68640, -9999.000
 68700, -9999.000
 68760, -9999.000
 68820, -9999.000
 68880, -9999.000
 68940, -9999.000
 69000, -9999.000
 69060, -9999.000
 69120, -9999.000
 69180, -9999.000
 69240, -9999.000
 69300, -9999.000
 69360, -9999.000
 69420, -9999.000
 69480, -9999.000
 69540, -9999.000
 69600, -9999.000
 69660, -9999.000
 69720, -9999.000
 69780, -9999.000
 69840, -9999.000
 69900, -9999.000
 69960, -9999.000
 70020, -9999.000
 70080, -9999.000
 70140, -9999.000
 70200, -9999.000
 70260, -9999.000
 70320, -9999.000
 70380, -9999.000
 70440, -9999.000
 70500, -9999.000
 70560, -9999.000
 70620, -9999.000
 70680, -9999.000
 70740, -9999.000
 70800, -9999.000
 70860, -9999.000
 70920, -9999.000
 70980, -9999.000
 71040, -9999.000
 71100, -9999.000
 71160, -9999.000
 71220, -9999.000
 71280, -9999.000
 71340, -9999.000
 71400, -9999.000
 71460, -9999.000
 71520, -9999.000
 71580, -9999.000
 71640, -9999.000
 71700, -9999.000
 71760, -9999.000
 71820, -9999.000
 71880, -9999.000
 71940, -9999.000
 72000, -9999.000
 72060, -9999.000
 72120, -9999.000
 72180, -9999.000
 72240, -9999.000
 72300, -9999.000
 72360, -9999.000
 72420, -9999.000
 72480, -9999.000
 72540, -9999.000
 72600, -9999.000
 72660, -9999.000
 72720, -9999.000
 72780, -9999.000
 72840, -9999.000
 72900, -9999.000
 72960, -9999.000
 73020, -9999.000
 73080, -9999.000
 73140, -9999.000
 73200, -9999.000
 73260, -9999.000
 73320, -9999.000
 73380, -9999.000
 73440, -9999.000
 73500, -9999.000
 73560, -9999.000
 73620, -9999.000
 73680, -9999.000
 73740, -9999.000
 73800, -9999.000
 73860, -9999.000
 73920, -9999.000
 73980, -9999.000
 74040, -9999.000
 74100, -9999.000
 74160, -9999.000
 74220, -9999.000
 74280, -9999.000
 74340, -9999.000
 74400, -9999.000
 74460, -9999.000
 74520, -9999.000
 74580, -9999.000
 74640, -9999.000
 74700, -9999.000
 74760, -9999.000
 74820, -9999.000
 74880, -9999.000
 74940, -9999.000
 75000, -9999.000
 75060, -9999.000
 75120, -9999.000
 75180, -9999.000
 75240, -9999.000
 75300, -9999.000
 75360, -9999.000
 75420, -9999.000
 75480, -9999.000
 75540, -9999.000
 75600, -9999.000
 75660, -9999.000
 75720, -9999.000
 75780, -9999.000
 75840, -9999.000
 75900, -9999.000
 75960, -9999.000
 76020, -9999.000
 76080, -9999.000
 76140, -9999.000
 76200, -9999.000
 76260, -9999.000
 76320, -9999.000
 76380, -9999.000
 76440, -9999.000
 76500, -9999.000
 76560, -9999.000
 76620, -9999.000
 76680, -9999.000
 76740, -9999.000
 76800, -9999.000
 76860, -9999.000
 76920, -9999.000
 76980, -9999.000
 77040, -9999.000
 77100, -9999.000
 77160, -9999.000
 77220, -9999.000
 77280, -9999.000
 77340, -9999.000
 77400, -9999.000
 77460, -9999.000
 77520, -9999.000
 77580, -9999.000
 77640, -9999.000
 77700, -9999.000
 77760, -9999.000
 77820, -9999.000
 77880, -9999.000
 77940, -9999.000
 78000, -9999.000
 78060, -9999.000
 78120, -9999.000
 78180, -9999.000
 78240, -9999.000
 78300, -9999.000
 78360, -9999.000
 78420, -9999.000
 78480, -9999.000
 78540, -9999.000
 78600, -9999.000
 78660, -9999.000
 78720, -9999.000
 78780, -9999.000
 78840, -9999.000
 78900, -9999.000
 78960, -9999.000
 79020, -9999.000
 79080, -9999.000
 79140, -9999.000
 79200, -9999.000
 79260, -9999.000
 79320, -9999.000
 79380, -9999.000
 79440, -9999.000
 79500, -9999.000
 79560, -9999.000
 79620, -9999.000
 79680, -9999.000
 79740, -9999.000
 79800, -9999.000
 79860, -9999.000
 79920, -9999.000
 79980, -9999.000
 80040, -9999.000
 80100, -9999.000
 80160, -9999.000
 80220, -9999.000
 80280, -9999.000
 80340, -9999.000
 80400, -9999.000
 80460, -9999.000
 80520, -9999.000
 80580, -9999.000
 80640, -9999.000
 80700, -9999.000
 80760, -9999.000
 80820, -9999.000
 80880, -9999.000
 80940, -9999.000
 81000, -9999.000
 81060, -9999.000
 81120, -9999.000
 81180, -9999.000
 81240, -9999.000
 81300, -9999.000
 81360, -9999.000
 81420, -9999.000
 81480, -9999.000
 81540, -9999.000
 81600, -9999.000
 81660, -9999.000
 81720, -9999.000
 81780, -9999.000
 81840, -9999.000
 81900, -9999.000
 81960, -9999.000
 82020, -9999.000
 82080, -9999.000
 82140, -9999.000
 82200, -9999.000
 82260, -9999.000
 82320, -9999.000
 82380, -9999.000
 82440, -9999.000
 82500, -9999.000
 82560, -9999.000
 82620, -9999.000
 82680, -9999.000
 82740, -9999.000
 82800, -9999.000
 82860, -9999.000
 82920, -9999.000
 82980, -9999.000
 83040, -9999.000
 83100, -9999.000
 83160, -9999.000
 83220, -9999.000
 83280, -9999.000
 83340, -9999.000
 83400, -9999.000
 83460, -9999.000
 83520, -9999.000
 83580, -9999.000
 83640, -9999.000
 83700, -9999.000
 83760, -9999.000
 83820, -9999.000
 83880, -9999.000
 83940, -9999.000
 84000, -9999.000
 84060, -9999.000
 84120, -9999.000
 84180, -9999.000
 84240, -9999.000
 84300, -9999.000
 84360, -9999.000
 84420, -9999.000
 84480, -9999.000
 84540, -9999.000
 84600, -9999.000
 84660, -9999.000
 84720, -9999.000
 84780, -9999.000
 84840, -9999.000
 84900, -9999.000
 84960, -9999.000
 85020, -9999.000
 85080, -9999.000
 85140, -9999.000
 85200, -9999.000
 85260, -9999.000
 85320, -9999.000
 85380, -9999.000
 85440, -9999.000
 85500, -9999.000
 85560, -9999.000
 85620, -9999.000
 85680, -9999.000
 85740, -9999.000
 85800, -9999.000
 85860, -9999.000
 85920, -9999.000
 85980, -9999.000
 86040, -9999.000
 86100, -9999.000
 86160, -9999.000
 86220, -9999.000
 86280, -9999.000
 86340, -9999.000
