33, 1001
Michael A Robinson, Chris Jernigan, Subi Thakali
NOAA ESRL Chemical Sciences Laboratory and CIRES, U. of Colorado
NOAA Iodide CIMS Instrument
USOS
1, 1
2024, 07, 23, 2024, 07, 25
1
starttime_UTC, seconds_past_midnight, seconds_of_day_since_00:00:00_UTC
1
1
-9999
HNO3_NOAACIMS, pptv, Gas_HNO3_InSitu_S_AVMR, 
0
18
PI_CONTACT_INFO: 325 Broadway, R/CSD 7, Boulder, Colorado 80305; michael.a.robinson@noaa.gov; chris.jernigan@noaa.gov;
PLATFORM: NOAA CSL Mobile Lab
LOCATION: SLC, Utah
ASSOCIATED_DATA: 1Hz data also available on request.
INSTRUMENT_INFO: NOAA I- ToF CIMS
DATA_INFO: All data in parts per trillion by volume (pptv). 1 Hz data is available upon request.
UNCERTAINTY: TBD
ULOD_FLAG: -7777
ULOD_VALUE: N/A
LLOD_FLAG: -8888
LLOD_VALUE: N/A
DM_CONTACT_INFO: Nathan Howard; nathan.h.howard@noaa.gov
PROJECT_INFO: USOS, summer 2024. https://csl.noaa.gov/groups/csl7/measurements/2024usos/
STIPULATIONS_ON_USE: Users are strongly encouraged to contact the PI for proper data usage.
OTHER_COMMENTS: 
REVISION: RA
RA: Preliminary Data; For in-field use only
starttime_UTC, HNO3_NOAACIMS
     0, -9999.000
    60, -9999.000
   120, -9999.000
   180, -9999.000
   240, -9999.000
   300, -9999.000
   360, -9999.000
   420, -9999.000
   480, -9999.000
   540, -9999.000
   600, -9999.000
   660, -9999.000
   720, -9999.000
   780, -9999.000
   840, -9999.000
   900, -9999.000
   960, -9999.000
  1020, -9999.000
  1080, -9999.000
  1140, -9999.000
  1200, -9999.000
  1260, -9999.000
  1320, -9999.000
  1380, -9999.000
  1440, -9999.000
  1500, -9999.000
  1560, -9999.000
  1620, -9999.000
  1680, -9999.000
  1740, -9999.000
  1800, -9999.000
  1860, -9999.000
  1920, -9999.000
  1980, -9999.000
  2040, 615.047
  2100, 566.432
  2160, 528.388
  2220, 487.271
  2280, 469.289
  2340, 1097.066
  2400, 922.106
  2460, 674.317
  2520, 436.544
  2580, 257.037
  2640, 329.513
  2700, 379.590
  2760, 415.962
  2820, 416.956
  2880, 422.653
  2940, 412.381
  3000, 390.869
  3060, 393.721
  3120, 365.645
  3180, 345.946
  3240, 330.508
  3300, 325.873
  3360, 307.095
  3420, 292.533
  3480, 282.189
  3540, 272.701
  3600, 253.919
  3660, 207.067
  3720, 161.193
  3780, -9999.000
  3840, 122.138
  3900, 118.320
  3960, 108.706
  4020, 103.540
  4080, 99.541
  4140, 87.762
  4200, 80.848
  4260, 81.305
  4320, 85.760
  4380, 92.422
  4440, 92.952
  4500, 86.458
  4560, 84.404
  4620, 85.003
  4680, 89.529
  4740, 94.809
  4800, 98.043
  4860, 104.142
  4920, 103.030
  4980, 109.331
  5040, 119.425
  5100, 116.991
  5160, 122.609
  5220, 130.617
  5280, 133.907
  5340, 142.541
  5400, 147.286
  5460, 154.272
  5520, 156.894
  5580, 160.943
  5640, -9999.000
  5700, 142.224
  5760, 148.117
  5820, 160.317
  5880, 168.918
  5940, 171.313
  6000, 179.630
  6060, 185.312
  6120, 191.008
  6180, 194.649
  6240, 194.747
  6300, 195.545
  6360, 187.959
  6420, 189.419
  6480, 196.714
  6540, 193.680
  6600, 199.000
  6660, 197.406
  6720, 192.650
  6780, 194.441
  6840, 196.300
  6900, 204.449
  6960, 196.347
  7020, 192.697
  7080, 188.158
  7140, 187.652
  7200, 192.511
  7260, 178.632
  7320, 174.546
  7380, 168.572
  7440, 170.880
  7500, 164.688
  7560, 181.652
  7620, 184.268
  7680, 201.679
  7740, 213.434
  7800, 216.140
  7860, 203.715
  7920, 196.185
  7980, 194.472
  8040, 194.803
  8100, 216.675
  8160, 269.307
  8220, 285.013
  8280, 291.095
  8340, -9999.000
  8400, -9999.000
  8460, -9999.000
  8520, -9999.000
  8580, -9999.000
  8640, -9999.000
  8700, -9999.000
  8760, -9999.000
  8820, -9999.000
  8880, -9999.000
  8940, -9999.000
  9000, 375.246
  9060, 281.428
  9120, 272.476
  9180, 278.469
  9240, 303.558
  9300, 318.896
  9360, 335.907
  9420, 350.089
  9480, 338.515
  9540, 328.644
  9600, 335.632
  9660, 331.556
  9720, 315.176
  9780, 289.673
  9840, 279.005
  9900, 269.567
  9960, 251.981
 10020, 233.114
 10080, 217.060
 10140, 209.310
 10200, 201.785
 10260, 194.413
 10320, 190.268
 10380, 189.672
 10440, 187.774
 10500, 184.158
 10560, 182.074
 10620, 176.825
 10680, -9999.000
 10740, 174.664
 10800, 174.266
 10860, 183.888
 10920, 192.858
 10980, 198.214
 11040, 195.791
 11100, 196.162
 11160, 197.538
 11220, 191.818
 11280, 189.509
 11340, 187.425
 11400, 185.230
 11460, 190.135
 11520, 189.482
 11580, 185.380
 11640, 189.821
 11700, 188.218
 11760, 184.811
 11820, 185.614
 11880, 188.136
 11940, 190.022
 12000, 193.296
 12060, 195.533
 12120, 194.201
 12180, 188.829
 12240, 183.838
 12300, 179.938
 12360, 182.545
 12420, 181.401
 12480, 182.361
 12540, 179.214
 12600, 182.157
 12660, 185.999
 12720, 195.494
 12780, 213.128
 12840, 210.012
 12900, 208.536
 12960, 198.038
 13020, 188.648
 13080, 188.695
 13140, 179.648
 13200, 171.317
 13260, 177.820
 13320, 178.122
 13380, 165.376
 13440, 164.032
 13500, 165.631
 13560, 171.229
 13620, 169.603
 13680, 172.250
 13740, 180.898
 13800, 181.725
 13860, 186.763
 13920, 184.426
 13980, 176.286
 14040, 172.043
 14100, 168.031
 14160, 158.225
 14220, 150.774
 14280, 137.175
 14340, 136.819
 14400, 127.631
 14460, 132.872
 14520, 143.903
 14580, 148.268
 14640, 143.967
 14700, 137.483
 14760, 129.251
 14820, 126.568
 14880, 119.605
 14940, 129.654
 15000, 126.949
 15060, 119.472
 15120, 127.388
 15180, 135.849
 15240, 133.610
 15300, 133.722
 15360, 130.738
 15420, 127.971
 15480, 130.297
 15540, 132.255
 15600, 136.760
 15660, 133.116
 15720, 135.220
 15780, 146.081
 15840, 149.548
 15900, 145.474
 15960, 146.531
 16020, 147.704
 16080, 147.350
 16140, 151.440
 16200, 152.823
 16260, 150.287
 16320, 155.480
 16380, 159.075
 16440, 154.181
 16500, 151.330
 16560, 149.961
 16620, 145.263
 16680, 139.620
 16740, 135.869
 16800, 136.069
 16860, 128.895
 16920, 124.212
 16980, 121.861
 17040, 116.806
 17100, 118.567
 17160, 120.255
 17220, 120.060
 17280, 124.206
 17340, 129.743
 17400, 131.684
 17460, 130.789
 17520, 132.822
 17580, 128.184
 17640, 127.209
 17700, 128.051
 17760, 136.760
 17820, 133.445
 17880, 126.604
 17940, 124.549
 18000, 128.780
 18060, -9999.000
 18120, 118.376
 18180, 117.961
 18240, 125.377
 18300, 124.296
 18360, 122.619
 18420, 124.318
 18480, 122.088
 18540, 118.559
 18600, 127.013
 18660, 132.485
 18720, 128.874
 18780, 127.214
 18840, 136.596
 18900, 148.094
 18960, 154.629
 19020, 157.360
 19080, 166.835
 19140, 180.443
 19200, 177.598
 19260, 177.163
 19320, 166.591
 19380, 167.221
 19440, 141.753
 19500, 116.688
 19560, 151.026
 19620, 173.322
 19680, 160.711
 19740, 140.308
 19800, 128.426
 19860, 121.125
 19920, -9999.000
 19980, 122.327
 20040, 118.439
 20100, 108.948
 20160, 99.771
 20220, 87.480
 20280, 81.191
 20340, 87.657
 20400, 93.102
 20460, 95.576
 20520, 106.080
 20580, 95.201
 20640, 84.197
 20700, 79.736
 20760, 90.566
 20820, 94.296
 20880, 92.888
 20940, 96.487
 21000, 117.681
 21060, 138.152
 21120, 149.580
 21180, 159.763
 21240, 161.614
 21300, 163.925
 21360, 161.734
 21420, 158.569
 21480, 163.387
 21540, 156.031
 21600, 153.821
 21660, 149.502
 21720, 149.563
 21780, -9999.000
 21840, 143.527
 21900, 149.546
 21960, 152.122
 22020, 147.375
 22080, 148.025
 22140, 156.892
 22200, 162.671
 22260, 166.761
 22320, 164.324
 22380, 157.083
 22440, 155.295
 22500, 152.083
 22560, 157.161
 22620, 167.507
 22680, 161.499
 22740, 157.039
 22800, 153.866
 22860, 150.667
 22920, 162.629
 22980, 176.086
 23040, 167.052
 23100, 164.926
 23160, 164.294
 23220, 163.947
 23280, 158.911
 23340, 172.107
 23400, 171.629
 23460, 167.057
 23520, 172.251
 23580, 176.379
 23640, 180.733
 23700, 170.850
 23760, 155.979
 23820, 160.428
 23880, 159.651
 23940, 155.925
 24000, 155.569
 24060, 175.453
 24120, 193.698
 24180, 182.552
 24240, 183.142
 24300, 180.770
 24360, 175.948
 24420, 164.386
 24480, 157.173
 24540, 163.676
 24600, 162.909
 24660, 161.246
 24720, 144.384
 24780, 147.280
 24840, 151.903
 24900, 171.386
 24960, 171.338
 25020, 175.067
 25080, 173.726
 25140, 167.126
 25200, 160.962
 25260, 165.104
 25320, 166.491
 25380, 169.019
 25440, -9999.000
 25500, 146.329
 25560, 143.771
 25620, 144.049
 25680, 150.721
 25740, 154.203
 25800, 151.568
 25860, 148.023
 25920, 141.436
 25980, 138.370
 26040, 140.474
 26100, 149.824
 26160, 145.304
 26220, 142.604
 26280, 143.736
 26340, 140.605
 26400, 143.805
 26460, 150.020
 26520, 146.112
 26580, 138.787
 26640, 134.281
 26700, 130.053
 26760, 134.514
 26820, 136.647
 26880, 138.844
 26940, 145.801
 27000, 150.392
 27060, 145.342
 27120, 141.268
 27180, 149.120
 27240, 152.799
 27300, -9999.000
 27360, 136.456
 27420, 139.574
 27480, 137.446
 27540, 140.416
 27600, 145.794
 27660, 146.692
 27720, 144.237
 27780, 139.144
 27840, 143.403
 27900, 149.403
 27960, 139.565
 28020, 139.307
 28080, 139.610
 28140, 136.808
 28200, 133.406
 28260, 134.416
 28320, 137.268
 28380, 136.834
 28440, 135.667
 28500, 128.233
 28560, 125.415
 28620, 130.779
 28680, 134.056
 28740, 138.978
 28800, 145.517
 28860, 141.167
 28920, 145.412
 28980, 154.459
 29040, 161.093
 29100, 169.632
 29160, -9999.000
 29220, 143.781
 29280, 151.232
 29340, 155.679
 29400, 155.827
 29460, 150.234
 29520, 147.302
 29580, 146.960
 29640, 142.237
 29700, 142.944
 29760, 141.981
 29820, 150.687
 29880, 147.315
 29940, 145.266
 30000, 145.809
 30060, 145.342
 30120, 144.503
 30180, 141.192
 30240, 139.599
 30300, 142.364
 30360, 142.697
 30420, 146.700
 30480, 149.039
 30540, 147.885
 30600, 146.462
 30660, 151.237
 30720, 153.803
 30780, 159.959
 30840, 170.509
 30900, 173.668
 30960, 173.156
 31020, 153.406
 31080, 161.161
 31140, 162.378
 31200, 164.363
 31260, 164.743
 31320, 160.061
 31380, 163.152
 31440, 164.013
 31500, 170.635
 31560, 161.351
 31620, 157.186
 31680, 159.962
 31740, 159.324
 31800, 161.276
 31860, 164.152
 31920, 166.300
 31980, 164.490
 32040, 161.776
 32100, 162.491
 32160, 165.643
 32220, 169.918
 32280, 168.853
 32340, 161.886
 32400, 159.710
 32460, 157.779
 32520, 159.356
 32580, 165.119
 32640, 161.365
 32700, 164.834
 32760, 161.330
 32820, 163.539
 32880, 151.034
 32940, 155.940
 33000, 158.756
 33060, 154.628
 33120, 155.653
 33180, 160.584
 33240, 163.544
 33300, 170.873
 33360, 170.232
 33420, 163.064
 33480, 165.408
 33540, 171.856
 33600, 172.601
 33660, 178.884
 33720, 183.027
 33780, 175.128
 33840, 171.700
 33900, 175.537
 33960, 180.583
 34020, 179.102
 34080, 177.811
 34140, 170.701
 34200, 170.571
 34260, 170.898
 34320, 172.083
 34380, 164.941
 34440, 166.168
 34500, 164.937
 34560, 167.690
 34620, 168.770
 34680, 165.303
 34740, 164.951
 34800, 167.393
 34860, 173.078
 34920, 178.529
 34980, 176.534
 35040, 173.510
 35100, 170.865
 35160, 178.285
 35220, 181.602
 35280, 184.789
 35340, 178.984
 35400, 175.788
 35460, 168.275
 35520, 170.296
 35580, 171.957
 35640, 176.029
 35700, 169.375
 35760, 169.117
 35820, 176.779
 35880, 177.877
 35940, 180.908
 36000, 172.834
 36060, 171.224
 36120, 168.294
 36180, 161.097
 36240, 148.873
 36300, 151.410
 36360, 160.515
 36420, 172.538
 36480, 178.632
 36540, -9999.000
 36600, 164.344
 36660, 169.607
 36720, 171.828
 36780, 167.939
 36840, 163.731
 36900, 160.749
 36960, 149.414
 37020, 145.542
 37080, 157.790
 37140, 171.952
 37200, 169.430
 37260, 166.657
 37320, 164.354
 37380, 178.492
 37440, 181.054
 37500, 177.279
 37560, 172.538
 37620, 170.014
 37680, 172.419
 37740, 174.803
 37800, 174.171
 37860, 172.630
 37920, 163.345
 37980, 157.939
 38040, 162.999
 38100, 175.145
 38160, 170.233
 38220, 170.330
 38280, 170.398
 38340, 178.146
 38400, 172.085
 38460, 175.607
 38520, 174.099
 38580, 171.479
 38640, 150.485
 38700, 157.867
 38760, 170.783
 38820, 157.922
 38880, 162.924
 38940, 176.822
 39000, 185.485
 39060, 188.695
 39120, 190.843
 39180, 190.985
 39240, 185.975
 39300, 193.700
 39360, 190.103
 39420, 188.329
 39480, 190.735
 39540, 195.523
 39600, 201.192
 39660, 204.516
 39720, 207.084
 39780, 201.771
 39840, 195.747
 39900, 195.331
 39960, 199.158
 40020, 205.079
 40080, 198.712
 40140, 188.991
 40200, 184.319
 40260, 159.403
 40320, 178.547
 40380, 192.099
 40440, 188.727
 40500, 191.769
 40560, 197.778
 40620, 198.998
 40680, 206.753
 40740, 200.522
 40800, 189.187
 40860, 191.847
 40920, 196.631
 40980, 196.755
 41040, 186.665
 41100, 167.502
 41160, 164.904
 41220, 159.623
 41280, 157.163
 41340, 152.306
 41400, 153.394
 41460, 156.116
 41520, 160.491
 41580, 165.591
 41640, 158.933
 41700, 155.885
 41760, 160.141
 41820, 170.108
 41880, 167.139
 41940, 174.116
 42000, 172.510
 42060, 167.927
 42120, 152.210
 42180, 159.435
 42240, 168.203
 42300, 171.697
 42360, 168.179
 42420, 168.379
 42480, 163.437
 42540, 157.997
 42600, 145.447
 42660, 142.341
 42720, 143.487
 42780, 149.194
 42840, 143.328
 42900, 133.198
 42960, 122.535
 43020, 128.641
 43080, 142.721
 43140, 166.841
 43200, 170.108
 43260, 193.058
 43320, 207.126
 43380, 190.847
 43440, 168.298
 43500, 149.905
 43560, 133.368
 43620, 132.013
 43680, 146.327
 43740, 150.167
 43800, 135.484
 43860, 135.203
 43920, -9999.000
 43980, 156.087
 44040, 164.958
 44100, 168.007
 44160, 162.217
 44220, 157.514
 44280, 152.746
 44340, 132.887
 44400, 107.686
 44460, 80.196
 44520, 62.714
 44580, 71.260
 44640, 88.576
 44700, -9999.000
 44760, -9999.000
 44820, -9999.000
 44880, -9999.000
 44940, -9999.000
 45000, -9999.000
 45060, -9999.000
 45120, -9999.000
 45180, -9999.000
 45240, -9999.000
 45300, -9999.000
 45360, -9999.000
 45420, -9999.000
 45480, -9999.000
 45540, -9999.000
 45600, -9999.000
 45660, -9999.000
 45720, -9999.000
 45780, -9999.000
 45840, -9999.000
 45900, -9999.000
 45960, -9999.000
 46020, -9999.000
 46080, -9999.000
 46140, -9999.000
 46200, -9999.000
 46260, -9999.000
 46320, -9999.000
 46380, -9999.000
 46440, -9999.000
 46500, -9999.000
 46560, -9999.000
 46620, -9999.000
 46680, -9999.000
 46740, -9999.000
 46800, -9999.000
 46860, -9999.000
 46920, -9999.000
 46980, -9999.000
 47040, -9999.000
 47100, -9999.000
 47160, -9999.000
 47220, -9999.000
 47280, -9999.000
 47340, -9999.000
 47400, -9999.000
 47460, -9999.000
 47520, -9999.000
 47580, -9999.000
 47640, -9999.000
 47700, -9999.000
 47760, -9999.000
 47820, -9999.000
 47880, -9999.000
 47940, -9999.000
 48000, -9999.000
 48060, -9999.000
 48120, -9999.000
 48180, -9999.000
 48240, -9999.000
 48300, -9999.000
 48360, -9999.000
 48420, -9999.000
 48480, -9999.000
 48540, -9999.000
 48600, -9999.000
 48660, -9999.000
 48720, -9999.000
 48780, -9999.000
 48840, -9999.000
 48900, -9999.000
 48960, -9999.000
 49020, -9999.000
 49080, -9999.000
 49140, -9999.000
 49200, -9999.000
 49260, -9999.000
 49320, -9999.000
 49380, -9999.000
 49440, -9999.000
 49500, -9999.000
 49560, 347.097
 49620, 336.642
 49680, 302.948
 49740, 282.117
 49800, 276.665
 49860, 281.789
 49920, 280.135
 49980, 260.211
 50040, 263.147
 50100, 258.886
 50160, 266.691
 50220, 263.393
 50280, 237.233
 50340, 236.107
 50400, 254.160
 50460, 260.235
 50520, 249.203
 50580, 247.626
 50640, 242.815
 50700, 239.945
 50760, 237.769
 50820, 244.552
 50880, 240.959
 50940, 222.638
 51000, 209.145
 51060, 202.582
 51120, 191.213
 51180, 193.081
 51240, -9999.000
 51300, 196.444
 51360, 197.140
 51420, 202.808
 51480, 207.744
 51540, 203.190
 51600, 196.115
 51660, 205.307
 51720, 221.266
 51780, 229.123
 51840, 238.183
 51900, 255.909
 51960, 269.260
 52020, 274.998
 52080, 291.914
 52140, 315.391
 52200, 330.396
 52260, 332.910
 52320, 337.947
 52380, 345.292
 52440, 341.147
 52500, 337.045
 52560, 333.394
 52620, 322.462
 52680, 325.659
 52740, 308.928
 52800, 285.945
 52860, 267.635
 52920, 263.868
 52980, 276.600
 53040, 305.837
 53100, 318.026
 53160, 347.039
 53220, 368.118
 53280, 386.970
 53340, 397.461
 53400, 408.609
 53460, 426.487
 53520, 451.176
 53580, 444.976
 53640, 432.365
 53700, 422.702
 53760, 419.353
 53820, 420.814
 53880, 462.327
 53940, 502.919
 54000, 520.152
 54060, 509.340
 54120, 544.359
 54180, 570.485
 54240, 571.491
 54300, 555.377
 54360, 536.703
 54420, 479.372
 54480, 435.487
 54540, 412.926
 54600, 397.542
 54660, 389.711
 54720, 398.556
 54780, 395.540
 54840, 412.056
 54900, -9999.000
 54960, 357.059
 55020, 349.065
 55080, 326.797
 55140, 310.127
 55200, 303.233
 55260, 305.332
 55320, 331.783
 55380, 331.803
 55440, 332.287
 55500, 365.927
 55560, 356.219
 55620, 348.782
 55680, 333.153
 55740, 359.952
 55800, 398.908
 55860, 418.992
 55920, 430.123
 55980, 433.146
 56040, 413.207
 56100, 409.323
 56160, 402.654
 56220, 380.531
 56280, 386.190
 56340, 400.811
 56400, 423.977
 56460, 433.989
 56520, 443.635
 56580, 452.131
 56640, 464.809
 56700, 481.255
 56760, -9999.000
 56820, 422.189
 56880, 407.947
 56940, 403.227
 57000, 384.550
 57060, 387.175
 57120, 394.245
 57180, 400.900
 57240, 418.516
 57300, 452.390
 57360, 511.215
 57420, 564.085
 57480, 616.503
 57540, 636.884
 57600, 642.533
 57660, 642.413
 57720, 643.266
 57780, 655.589
 57840, 680.644
 57900, 708.005
 57960, 749.018
 58020, 766.695
 58080, 827.183
 58140, 883.726
 58200, 865.081
 58260, 931.783
 58320, 910.621
 58380, 906.514
 58440, 870.926
 58500, 835.211
 58560, 800.142
 58620, -9999.000
 58680, 673.255
 58740, 691.828
 58800, 724.750
 58860, 749.235
 58920, 763.143
 58980, 779.056
 59040, 787.861
 59100, 789.762
 59160, 805.477
 59220, 807.927
 59280, 814.751
 59340, 832.092
 59400, 873.843
 59460, 894.160
 59520, 887.067
 59580, 867.903
 59640, 887.713
 59700, 837.862
 59760, 806.949
 59820, -9999.000
 59880, -9999.000
 59940, -9999.000
 60000, -9999.000
 60060, -9999.000
 60120, -9999.000
 60180, -9999.000
 60240, -9999.000
 60300, -9999.000
 60360, -9999.000
 60420, -9999.000
 60480, -9999.000
 60540, -9999.000
 60600, -9999.000
 60660, -9999.000
 60720, -9999.000
 60780, -9999.000
 60840, -9999.000
 60900, -9999.000
 60960, -9999.000
 61020, -9999.000
 61080, -9999.000
 61140, -9999.000
 61200, -9999.000
 61260, -9999.000
 61320, -9999.000
 61380, -9999.000
 61440, -9999.000
 61500, -9999.000
 61560, -9999.000
 61620, -9999.000
 61680, -9999.000
 61740, -9999.000
 61800, -9999.000
 61860, -9999.000
 61920, -9999.000
 61980, -9999.000
 62040, -9999.000
 62100, -9999.000
 62160, -9999.000
 62220, -9999.000
 62280, -9999.000
 62340, -9999.000
 62400, -9999.000
 62460, -9999.000
 62520, -9999.000
 62580, -9999.000
 62640, -9999.000
 62700, -9999.000
 62760, -9999.000
 62820, -9999.000
 62880, -9999.000
 62940, -9999.000
 63000, -9999.000
 63060, -9999.000
 63120, -9999.000
 63180, -9999.000
 63240, -9999.000
 63300, -9999.000
 63360, -9999.000
 63420, -9999.000
 63480, -9999.000
 63540, -9999.000
 63600, -9999.000
 63660, -9999.000
 63720, -9999.000
 63780, -9999.000
 63840, -9999.000
 63900, -9999.000
 63960, -9999.000
 64020, -9999.000
 64080, -9999.000
 64140, -9999.000
 64200, -9999.000
 64260, -9999.000
 64320, -9999.000
 64380, -9999.000
 64440, -9999.000
 64500, -9999.000
 64560, -9999.000
 64620, -9999.000
 64680, -9999.000
 64740, -9999.000
 64800, -9999.000
 64860, -9999.000
 64920, -9999.000
 64980, -9999.000
 65040, -9999.000
 65100, -9999.000
 65160, -9999.000
 65220, -9999.000
 65280, -9999.000
 65340, -9999.000
 65400, -9999.000
 65460, -9999.000
 65520, -9999.000
 65580, -9999.000
 65640, -9999.000
 65700, -9999.000
 65760, -9999.000
 65820, -9999.000
 65880, -9999.000
 65940, -9999.000
 66000, -9999.000
 66060, -9999.000
 66120, -9999.000
 66180, -9999.000
 66240, -9999.000
 66300, -9999.000
 66360, -9999.000
 66420, -9999.000
 66480, -9999.000
 66540, -9999.000
 66600, -9999.000
 66660, -9999.000
 66720, -9999.000
 66780, -9999.000
 66840, -9999.000
 66900, -9999.000
 66960, -9999.000
 67020, -9999.000
 67080, -9999.000
 67140, -9999.000
 67200, -9999.000
 67260, -9999.000
 67320, -9999.000
 67380, -9999.000
 67440, -9999.000
 67500, -9999.000
 67560, -9999.000
 67620, -9999.000
 67680, -9999.000
 67740, -9999.000
 67800, -9999.000
 67860, -9999.000
 67920, -9999.000
 67980, -9999.000
 68040, -9999.000
 68100, -9999.000
 68160, -9999.000
 68220, -9999.000
 68280, -9999.000
 68340, -9999.000
 68400, -9999.000
 68460, -9999.000
 68520, -9999.000
 68580, -9999.000
 68640, -9999.000
 68700, -9999.000
 68760, -9999.000
 68820, -9999.000
 68880, -9999.000
 68940, -9999.000
 69000, -9999.000
 69060, -9999.000
 69120, -9999.000
 69180, -9999.000
 69240, -9999.000
 69300, -9999.000
 69360, -9999.000
 69420, -9999.000
 69480, -9999.000
 69540, -9999.000
 69600, -9999.000
 69660, -9999.000
 69720, -9999.000
 69780, -9999.000
 69840, -9999.000
 69900, -9999.000
 69960, -9999.000
 70020, -9999.000
 70080, -9999.000
 70140, -9999.000
 70200, -9999.000
 70260, -9999.000
 70320, -9999.000
 70380, -9999.000
 70440, -9999.000
 70500, -9999.000
 70560, -9999.000
 70620, -9999.000
 70680, -9999.000
 70740, -9999.000
 70800, -9999.000
 70860, -9999.000
 70920, -9999.000
 70980, -9999.000
 71040, -9999.000
 71100, -9999.000
 71160, -9999.000
 71220, -9999.000
 71280, -9999.000
 71340, -9999.000
 71400, -9999.000
 71460, -9999.000
 71520, -9999.000
 71580, -9999.000
 71640, -9999.000
 71700, -9999.000
 71760, -9999.000
 71820, -9999.000
 71880, -9999.000
 71940, -9999.000
 72000, -9999.000
 72060, -9999.000
 72120, -9999.000
 72180, -9999.000
 72240, -9999.000
 72300, -9999.000
 72360, -9999.000
 72420, -9999.000
 72480, -9999.000
 72540, -9999.000
 72600, -9999.000
 72660, -9999.000
 72720, -9999.000
 72780, -9999.000
 72840, -9999.000
 72900, -9999.000
 72960, -9999.000
 73020, -9999.000
 73080, -9999.000
 73140, -9999.000
 73200, -9999.000
 73260, -9999.000
 73320, -9999.000
 73380, -9999.000
 73440, -9999.000
 73500, -9999.000
 73560, -9999.000
 73620, -9999.000
 73680, -9999.000
 73740, -9999.000
 73800, -9999.000
 73860, -9999.000
 73920, -9999.000
 73980, -9999.000
 74040, -9999.000
 74100, -9999.000
 74160, -9999.000
 74220, -9999.000
 74280, -9999.000
 74340, -9999.000
 74400, -9999.000
 74460, -9999.000
 74520, -9999.000
 74580, -9999.000
 74640, -9999.000
 74700, -9999.000
 74760, -9999.000
 74820, -9999.000
 74880, -9999.000
 74940, -9999.000
 75000, -9999.000
 75060, -9999.000
 75120, -9999.000
 75180, -9999.000
 75240, -9999.000
 75300, -9999.000
 75360, -9999.000
 75420, -9999.000
 75480, -9999.000
 75540, -9999.000
 75600, -9999.000
 75660, -9999.000
 75720, -9999.000
 75780, -9999.000
 75840, -9999.000
 75900, -9999.000
 75960, -9999.000
 76020, -9999.000
 76080, -9999.000
 76140, -9999.000
 76200, -9999.000
 76260, -9999.000
 76320, -9999.000
 76380, -9999.000
 76440, -9999.000
 76500, -9999.000
 76560, -9999.000
 76620, -9999.000
 76680, -9999.000
 76740, -9999.000
 76800, -9999.000
 76860, -9999.000
 76920, -9999.000
 76980, -9999.000
 77040, -9999.000
 77100, -9999.000
 77160, -9999.000
 77220, -9999.000
 77280, -9999.000
 77340, -9999.000
 77400, -9999.000
 77460, -9999.000
 77520, -9999.000
 77580, -9999.000
 77640, -9999.000
 77700, -9999.000
 77760, -9999.000
 77820, -9999.000
 77880, -9999.000
 77940, -9999.000
 78000, -9999.000
 78060, -9999.000
 78120, -9999.000
 78180, -9999.000
 78240, -9999.000
 78300, -9999.000
 78360, -9999.000
 78420, -9999.000
 78480, -9999.000
 78540, -9999.000
 78600, -9999.000
 78660, -9999.000
 78720, -9999.000
 78780, -9999.000
 78840, -9999.000
 78900, -9999.000
 78960, -9999.000
 79020, -9999.000
 79080, -9999.000
 79140, -9999.000
 79200, -9999.000
 79260, -9999.000
 79320, -9999.000
 79380, -9999.000
 79440, -9999.000
 79500, -9999.000
 79560, -9999.000
 79620, -9999.000
 79680, -9999.000
 79740, -9999.000
 79800, -9999.000
 79860, -9999.000
 79920, -9999.000
 79980, -9999.000
 80040, -9999.000
 80100, -9999.000
 80160, -9999.000
 80220, -9999.000
 80280, -9999.000
 80340, -9999.000
 80400, -9999.000
 80460, -9999.000
 80520, -9999.000
 80580, -9999.000
 80640, -9999.000
 80700, -9999.000
 80760, -9999.000
 80820, -9999.000
 80880, -9999.000
 80940, -9999.000
 81000, -9999.000
 81060, -9999.000
 81120, -9999.000
 81180, -9999.000
 81240, -9999.000
 81300, -9999.000
 81360, -9999.000
 81420, -9999.000
 81480, -9999.000
 81540, -9999.000
 81600, -9999.000
 81660, -9999.000
 81720, -9999.000
 81780, -9999.000
 81840, -9999.000
 81900, -9999.000
 81960, -9999.000
 82020, -9999.000
 82080, -9999.000
 82140, -9999.000
 82200, -9999.000
 82260, -9999.000
 82320, -9999.000
 82380, -9999.000
 82440, -9999.000
 82500, -9999.000
 82560, -9999.000
 82620, -9999.000
 82680, -9999.000
 82740, -9999.000
 82800, -9999.000
 82860, 1014.933
 82920, 938.150
 82980, 936.851
 83040, 897.201
 83100, 782.169
 83160, 711.372
 83220, 699.163
 83280, 742.540
 83340, 841.859
 83400, 934.849
 83460, 970.155
 83520, 1034.958
 83580, 957.600
 83640, 896.001
 83700, 904.066
 83760, 945.353
 83820, 886.746
 83880, 902.732
 83940, 936.617
 84000, 932.098
 84060, 883.342
 84120, 925.911
 84180, 844.488
 84240, 791.420
 84300, 739.028
 84360, 686.091
 84420, 678.855
 84480, 722.365
 84540, 784.985
 84600, 784.765
 84660, 792.654
 84720, 774.652
 84780, 777.323
 84840, 778.023
 84900, 721.798
 84960, 651.574
 85020, 651.002
 85080, -9999.000
 85140, 535.957
 85200, 542.439
 85260, 562.606
 85320, 549.081
 85380, 518.854
 85440, 532.742
 85500, 561.192
 85560, 584.886
 85620, 539.511
 85680, 551.383
 85740, 544.291
 85800, 517.292
 85860, 508.121
 85920, 477.078
 85980, 457.179
 86040, 546.920
 86100, 536.630
 86160, 519.572
 86220, 489.861
 86280, 507.372
 86340, 504.698
