33, 1001
Michael A Robinson, Chris Jernigan, Subi Thakali
NOAA ESRL Chemical Sciences Laboratory and CIRES, U. of Colorado
NOAA Iodide CIMS Instrument
USOS
1, 1
2024, 07, 23, 2024, 07, 25
1
starttime_UTC, seconds_past_midnight, seconds_of_day_since_00:00:00_UTC
1
1
-9999
HNO2_NOAACIMS, pptv, Gas_HNO2_InSitu_S_AVMR, 
0
18
PI_CONTACT_INFO: 325 Broadway, R/CSD 7, Boulder, Colorado 80305; michael.a.robinson@noaa.gov; chris.jernigan@noaa.gov;
PLATFORM: NOAA CSL Mobile Lab
LOCATION: SLC, Utah
ASSOCIATED_DATA: 1Hz data also available on request.
INSTRUMENT_INFO: NOAA I- ToF CIMS
DATA_INFO: All data in parts per trillion by volume (pptv). 1 Hz data is available upon request.
UNCERTAINTY: TBD
ULOD_FLAG: -7777
ULOD_VALUE: N/A
LLOD_FLAG: -8888
LLOD_VALUE: N/A
DM_CONTACT_INFO: Nathan Howard; nathan.h.howard@noaa.gov
PROJECT_INFO: USOS, summer 2024. https://csl.noaa.gov/groups/csl7/measurements/2024usos/
STIPULATIONS_ON_USE: Users are strongly encouraged to contact the PI for proper data usage.
OTHER_COMMENTS: 
REVISION: RA
RA: Preliminary Data; For in-field use only
starttime_UTC, HNO2_NOAACIMS
     0, -9999.000
    60, -9999.000
   120, -9999.000
   180, -9999.000
   240, -9999.000
   300, -9999.000
   360, -9999.000
   420, -9999.000
   480, -9999.000
   540, -9999.000
   600, -9999.000
   660, -9999.000
   720, -9999.000
   780, -9999.000
   840, -9999.000
   900, -9999.000
   960, -9999.000
  1020, -9999.000
  1080, -9999.000
  1140, -9999.000
  1200, -9999.000
  1260, -9999.000
  1320, -9999.000
  1380, -9999.000
  1440, -9999.000
  1500, -9999.000
  1560, -9999.000
  1620, -9999.000
  1680, -9999.000
  1740, -9999.000
  1800, -9999.000
  1860, -9999.000
  1920, -9999.000
  1980, -9999.000
  2040, 13.148
  2100, 10.278
  2160, 14.256
  2220, 13.219
  2280, 13.920
  2340, 36.453
  2400,  9.908
  2460, 14.930
  2520,  9.131
  2580,  5.366
  2640,  6.019
  2700,  6.326
  2760,  9.734
  2820, 10.002
  2880, 16.657
  2940, 11.344
  3000,  4.800
  3060,  6.926
  3120, 10.038
  3180,  9.747
  3240, 10.770
  3300,  6.478
  3360,  8.538
  3420,  6.861
  3480,  6.718
  3540,  5.250
  3600,  6.725
  3660,  4.688
  3720,  4.053
  3780, -9999.000
  3840,  3.236
  3900,  4.480
  3960,  5.477
  4020,  1.847
  4080,  5.563
  4140,  2.889
  4200,  5.776
  4260,  2.817
  4320,  2.945
  4380,  1.465
  4440,  3.731
  4500,  3.965
  4560,  1.997
  4620,  6.140
  4680,  1.744
  4740,  2.141
  4800,  1.514
  4860,  2.334
  4920,  4.241
  4980,  2.663
  5040,  2.527
  5100,  3.808
  5160,  4.365
  5220,  4.046
  5280,  5.502
  5340,  3.638
  5400,  3.715
  5460,  1.231
  5520,  3.995
  5580,  0.443
  5640, -9999.000
  5700,  0.512
  5760,  3.163
  5820,  4.078
  5880,  6.363
  5940,  7.839
  6000,  4.623
  6060,  1.005
  6120,  5.060
  6180,  6.764
  6240,  4.028
  6300,  4.456
  6360,  3.361
  6420,  0.936
  6480,  5.901
  6540,  3.536
  6600,  7.103
  6660,  5.854
  6720,  7.986
  6780,  7.056
  6840, 11.113
  6900, 10.155
  6960, 20.464
  7020,  5.763
  7080, 14.822
  7140,  6.646
  7200, 12.738
  7260, 15.468
  7320, 20.943
  7380, 19.863
  7440, 20.098
  7500, -4.349
  7560, 21.795
  7620, 17.749
  7680, 17.680
  7740, 18.281
  7800, 17.138
  7860, 21.242
  7920, 22.250
  7980, 23.574
  8040, 18.675
  8100, 14.287
  8160, 11.210
  8220, 12.655
  8280, 15.014
  8340, -9999.000
  8400, -9999.000
  8460, -9999.000
  8520, -9999.000
  8580, -9999.000
  8640, -9999.000
  8700, -9999.000
  8760, -9999.000
  8820, -9999.000
  8880, -9999.000
  8940, -9999.000
  9000, -9999.000
  9060, -9999.000
  9120,  2.933
  9180,  1.752
  9240,  9.495
  9300, 14.130
  9360,  6.945
  9420,  0.885
  9480, 13.247
  9540, 51.490
  9600, 33.281
  9660, 14.420
  9720, 42.034
  9780, 29.817
  9840, 32.439
  9900, 25.173
  9960, 25.791
 10020, 42.687
 10080, 34.189
 10140, 27.720
 10200, 18.937
 10260, 17.170
 10320, 13.833
 10380,  9.359
 10440, 12.379
 10500, 14.792
 10560, 11.830
 10620, 12.186
 10680, -9999.000
 10740, 14.349
 10800,  8.242
 10860, 18.832
 10920, 17.332
 10980, 19.227
 11040, 20.584
 11100, 24.460
 11160, 29.398
 11220, 31.527
 11280, 28.598
 11340, 27.917
 11400, 19.500
 11460, 25.942
 11520, 28.377
 11580, 27.211
 11640, 21.632
 11700, 30.563
 11760, 28.395
 11820, 23.244
 11880, 24.751
 11940, 21.759
 12000, 20.035
 12060, 26.734
 12120, 22.919
 12180, 19.806
 12240, 20.780
 12300, 13.131
 12360, 21.484
 12420, 15.834
 12480,  8.407
 12540, 22.561
 12600, 35.345
 12660, 23.167
 12720,  0.894
 12780,  0.450
 12840,  4.592
 12900,  5.229
 12960,  3.864
 13020,  0.129
 13080,  3.488
 13140,  4.643
 13200, -2.253
 13260,  3.863
 13320, -1.269
 13380,  1.185
 13440,  6.942
 13500, 17.074
 13560,  9.386
 13620, 11.322
 13680,  4.777
 13740, 12.720
 13800, 22.920
 13860, 55.772
 13920, 51.956
 13980, 27.986
 14040, 24.605
 14100, 25.087
 14160, 25.440
 14220, 34.048
 14280, 24.107
 14340, 19.899
 14400, 33.870
 14460, 16.684
 14520, 16.835
 14580, 28.659
 14640, 28.295
 14700, 36.435
 14760, 44.539
 14820, 43.709
 14880, 13.605
 14940, 45.745
 15000, 41.562
 15060,  8.881
 15120, 27.222
 15180, 27.032
 15240,  9.981
 15300, 22.271
 15360, 16.479
 15420, 16.643
 15480, 15.930
 15540, 12.417
 15600,  7.314
 15660,  8.923
 15720, 13.561
 15780, -0.350
 15840, -2.549
 15900, -0.287
 15960,  1.926
 16020,  0.766
 16080,  0.107
 16140,  0.951
 16200, -0.162
 16260, -5.220
 16320, -5.499
 16380,  1.925
 16440,  0.230
 16500,  2.095
 16560,  3.501
 16620,  0.568
 16680,  9.176
 16740,  3.202
 16800,  4.430
 16860,  7.152
 16920,  5.805
 16980,  4.409
 17040,  4.710
 17100,  4.155
 17160, 10.141
 17220,  5.093
 17280, -1.512
 17340,  2.352
 17400,  5.852
 17460,  3.166
 17520,  7.832
 17580,  8.086
 17640, 19.907
 17700, 12.307
 17760,  3.869
 17820, 15.203
 17880, 14.493
 17940, 10.912
 18000, 18.009
 18060, -9999.000
 18120, 20.214
 18180, 17.311
 18240, 11.209
 18300, 16.305
 18360, 17.318
 18420, 19.753
 18480, 34.481
 18540, 26.334
 18600, 25.100
 18660, 35.540
 18720, 23.546
 18780, 12.820
 18840, 17.632
 18900, 10.264
 18960, 20.521
 19020, 21.879
 19080,  6.818
 19140, 14.095
 19200, 20.072
 19260, 24.606
 19320, 26.751
 19380, 27.848
 19440, 44.136
 19500, 20.827
 19560, 15.074
 19620, 31.720
 19680, 39.520
 19740, 40.284
 19800, 54.683
 19860, 46.706
 19920, -9999.000
 19980, 76.868
 20040, 64.646
 20100, 57.134
 20160, 68.876
 20220, 65.170
 20280, 63.707
 20340, 63.677
 20400, 55.872
 20460, 55.978
 20520, 157.142
 20580, 99.292
 20640, 76.780
 20700, 44.631
 20760, 43.771
 20820, 52.266
 20880, 51.701
 20940, 21.847
 21000, 22.275
 21060, 21.923
 21120,  3.668
 21180, 16.901
 21240,  8.163
 21300,  9.179
 21360,  8.381
 21420, -0.370
 21480,  0.666
 21540,  5.067
 21600,  4.171
 21660,  1.999
 21720,  1.367
 21780, -9999.000
 21840, -3.272
 21900, -0.083
 21960,  4.387
 22020,  0.467
 22080,  2.739
 22140,  3.197
 22200,  0.349
 22260,  1.352
 22320, 10.350
 22380,  8.041
 22440, 12.057
 22500,  9.993
 22560,  8.053
 22620, 13.959
 22680, 19.710
 22740, 26.476
 22800, 33.770
 22860, 26.822
 22920, 11.375
 22980, 14.840
 23040, 15.121
 23100, 19.476
 23160, 20.144
 23220, 16.208
 23280, 19.855
 23340, 14.039
 23400, 16.207
 23460, 15.290
 23520, 10.795
 23580, 21.223
 23640, 31.274
 23700, 48.608
 23760, 40.925
 23820, 47.318
 23880, 51.183
 23940, 60.413
 24000, 45.025
 24060, 25.555
 24120, 25.174
 24180, 12.485
 24240,  6.053
 24300,  5.309
 24360,  7.966
 24420,  7.159
 24480,  3.491
 24540,  2.001
 24600,  5.311
 24660,  1.282
 24720,  0.059
 24780,  1.426
 24840, -0.230
 24900, -2.144
 24960, -4.948
 25020, -3.632
 25080, -1.172
 25140,  1.739
 25200,  1.819
 25260, -1.602
 25320, -6.231
 25380, -5.562
 25440, -9999.000
 25500,  4.739
 25560,  2.287
 25620, -0.222
 25680, -2.144
 25740, -4.259
 25800, -3.806
 25860, -3.007
 25920,  4.695
 25980,  0.553
 26040, -0.211
 26100, -1.900
 26160, -5.519
 26220, -1.297
 26280,  4.155
 26340, -0.004
 26400,  0.523
 26460,  0.096
 26520, -3.321
 26580, -0.797
 26640,  1.541
 26700,  1.159
 26760,  3.090
 26820, -0.436
 26880, -3.319
 26940, -0.076
 27000, -0.141
 27060,  3.864
 27120,  2.113
 27180,  2.425
 27240, -4.180
 27300, -9999.000
 27360,  2.970
 27420,  1.459
 27480,  5.083
 27540,  4.474
 27600, -4.350
 27660,  1.582
 27720,  1.817
 27780, -0.901
 27840,  5.947
 27900,  8.605
 27960, -2.500
 28020,  1.665
 28080,  8.041
 28140,  1.862
 28200, 10.996
 28260,  7.249
 28320, -1.716
 28380, -0.614
 28440,  3.038
 28500,  1.003
 28560,  7.922
 28620,  6.136
 28680, -1.191
 28740,  3.405
 28800,  6.880
 28860,  4.134
 28920,  7.470
 28980,  8.914
 29040, -0.906
 29100,  2.068
 29160, -9999.000
 29220,  1.138
 29280,  4.056
 29340,  9.931
 29400,  3.762
 29460,  3.568
 29520,  7.637
 29580,  4.474
 29640,  4.343
 29700,  6.901
 29760,  1.234
 29820,  1.394
 29880,  6.881
 29940,  2.878
 30000,  2.001
 30060,  7.521
 30120,  3.097
 30180,  4.952
 30240,  1.718
 30300,  4.346
 30360,  5.140
 30420,  6.457
 30480,  1.552
 30540,  2.044
 30600,  6.611
 30660,  3.649
 30720,  5.899
 30780,  3.710
 30840, -0.146
 30900,  2.603
 30960,  8.709
 31020,  6.941
 31080,  6.675
 31140,  2.432
 31200,  1.810
 31260,  2.421
 31320,  5.534
 31380,  6.090
 31440,  5.296
 31500,  4.752
 31560, -0.050
 31620, -1.566
 31680,  9.442
 31740,  7.148
 31800, -1.954
 31860,  0.717
 31920,  3.711
 31980,  3.315
 32040,  5.918
 32100,  5.884
 32160,  0.023
 32220,  4.929
 32280, -0.004
 32340,  5.487
 32400,  6.506
 32460,  8.898
 32520,  2.751
 32580,  1.983
 32640,  5.457
 32700,  2.083
 32760,  9.402
 32820, 15.690
 32880,  9.816
 32940, -0.217
 33000,  5.791
 33060,  4.705
 33120,  6.580
 33180,  3.006
 33240, -3.189
 33300,  1.438
 33360,  3.573
 33420,  1.595
 33480, -2.806
 33540,  4.008
 33600, -4.249
 33660, -0.766
 33720,  5.046
 33780,  8.976
 33840,  4.555
 33900,  0.388
 33960,  1.794
 34020,  0.946
 34080,  9.180
 34140,  8.545
 34200, -1.343
 34260, -0.258
 34320,  5.463
 34380, -1.960
 34440,  9.374
 34500,  3.173
 34560, -2.584
 34620,  0.631
 34680,  4.277
 34740,  1.494
 34800,  4.743
 34860,  3.523
 34920, -2.873
 34980,  1.085
 35040,  5.119
 35100,  3.386
 35160,  1.262
 35220,  2.868
 35280,  1.127
 35340,  2.729
 35400, 11.752
 35460,  5.217
 35520,  0.334
 35580,  8.046
 35640,  6.724
 35700,  7.841
 35760,  9.508
 35820,  9.623
 35880,  7.718
 35940, 14.730
 36000, 24.401
 36060, 24.523
 36120, 23.519
 36180, 24.044
 36240, 15.676
 36300,  8.537
 36360, 12.010
 36420, 11.948
 36480,  5.692
 36540, -9999.000
 36600,  8.386
 36660,  7.125
 36720, 12.469
 36780,  8.238
 36840, 11.189
 36900, 16.640
 36960, 15.691
 37020, 10.526
 37080,  6.031
 37140,  9.777
 37200, 12.010
 37260, 16.189
 37320, 14.545
 37380, 12.938
 37440,  1.124
 37500, 10.512
 37560,  8.449
 37620, 12.965
 37680,  8.034
 37740, 12.022
 37800,  2.479
 37860,  4.856
 37920,  8.499
 37980,  8.633
 38040,  3.049
 38100,  5.293
 38160,  9.110
 38220,  5.379
 38280,  6.457
 38340,  9.787
 38400, -3.502
 38460,  6.026
 38520,  8.091
 38580,  6.605
 38640,  0.058
 38700,  1.077
 38760,  3.590
 38820,  3.413
 38880,  8.796
 38940,  6.062
 39000, -1.174
 39060,  2.439
 39120,  7.882
 39180,  6.978
 39240,  2.534
 39300,  5.087
 39360,  5.560
 39420,  1.558
 39480,  8.371
 39540,  7.630
 39600,  1.230
 39660, -0.789
 39720,  6.175
 39780,  2.468
 39840, 11.639
 39900,  7.413
 39960, -0.075
 40020,  1.254
 40080,  6.945
 40140,  7.756
 40200,  6.450
 40260, -4.962
 40320, -0.535
 40380,  3.071
 40440,  7.578
 40500, 10.691
 40560,  3.691
 40620,  3.335
 40680,  5.114
 40740,  5.435
 40800,  9.321
 40860, 14.043
 40920,  4.564
 40980, 15.216
 41040, 26.169
 41100, 36.469
 41160, 38.432
 41220, 38.726
 41280, 44.225
 41340, 39.351
 41400, 38.848
 41460, 37.788
 41520, 35.334
 41580, 52.414
 41640, 45.738
 41700, 31.666
 41760, 40.379
 41820, 46.974
 41880, 34.517
 41940, 37.966
 42000, 57.344
 42060, 52.999
 42120, 33.137
 42180, 38.810
 42240, 34.544
 42300, 43.754
 42360, 52.062
 42420, 62.116
 42480, 54.786
 42540, 53.317
 42600, 59.796
 42660, 60.505
 42720, 50.274
 42780, 65.054
 42840, 70.475
 42900, 64.287
 42960, 66.122
 43020, 55.411
 43080, 36.445
 43140, 59.827
 43200, 42.457
 43260, 44.217
 43320, 56.760
 43380, 69.551
 43440, 73.170
 43500, 83.205
 43560, 77.491
 43620, 80.550
 43680, 84.856
 43740, 96.619
 43800, 73.921
 43860, 56.963
 43920, -9999.000
 43980, 84.940
 44040, 92.333
 44100, 93.210
 44160, 117.273
 44220, 115.869
 44280, 108.320
 44340, 134.732
 44400, 137.908
 44460, 144.809
 44520, 107.102
 44580, 77.597
 44640, 63.628
 44700, -9999.000
 44760, -9999.000
 44820, -9999.000
 44880, -9999.000
 44940, -9999.000
 45000, -9999.000
 45060, -9999.000
 45120, -9999.000
 45180, -9999.000
 45240, -9999.000
 45300, -9999.000
 45360, -9999.000
 45420, -9999.000
 45480, -9999.000
 45540, -9999.000
 45600, -9999.000
 45660, -9999.000
 45720, -9999.000
 45780, -9999.000
 45840, -9999.000
 45900, -9999.000
 45960, -9999.000
 46020, -9999.000
 46080, -9999.000
 46140, -9999.000
 46200, -9999.000
 46260, -9999.000
 46320, -9999.000
 46380, -9999.000
 46440, -9999.000
 46500, -9999.000
 46560, -9999.000
 46620, -9999.000
 46680, -9999.000
 46740, -9999.000
 46800, -9999.000
 46860, -9999.000
 46920, -9999.000
 46980, -9999.000
 47040, -9999.000
 47100, -9999.000
 47160, -9999.000
 47220, -9999.000
 47280, -9999.000
 47340, -9999.000
 47400, -9999.000
 47460, -9999.000
 47520, -9999.000
 47580, -9999.000
 47640, -9999.000
 47700, -9999.000
 47760, -9999.000
 47820, -9999.000
 47880, -9999.000
 47940, -9999.000
 48000, -9999.000
 48060, -9999.000
 48120, -9999.000
 48180, -9999.000
 48240, -9999.000
 48300, -9999.000
 48360, -9999.000
 48420, -9999.000
 48480, -9999.000
 48540, -9999.000
 48600, -9999.000
 48660, -9999.000
 48720, -9999.000
 48780, -9999.000
 48840, -9999.000
 48900, -9999.000
 48960, -9999.000
 49020, -9999.000
 49080, -9999.000
 49140, -9999.000
 49200, -9999.000
 49260, -9999.000
 49320, -9999.000
 49380, -9999.000
 49440, -9999.000
 49500, -9999.000
 49560, 67.480
 49620, 45.156
 49680, 46.248
 49740, 44.182
 49800, 41.559
 49860, 54.769
 49920, 60.629
 49980, 59.211
 50040, 65.403
 50100, 44.188
 50160, 70.147
 50220, 76.767
 50280, 74.963
 50340, 67.125
 50400, 70.397
 50460, 88.772
 50520, 86.556
 50580, 111.830
 50640, 104.851
 50700, 108.206
 50760, 126.123
 50820, 148.364
 50880, 157.467
 50940, 150.607
 51000, 140.363
 51060, 174.939
 51120, 141.340
 51180, 157.104
 51240, -9999.000
 51300, 133.227
 51360, 134.407
 51420, 139.600
 51480, 144.577
 51540, 147.646
 51600, 127.198
 51660, 113.987
 51720, 115.318
 51780, 110.542
 51840, 104.155
 51900, 103.177
 51960, 116.415
 52020, 110.498
 52080, 79.371
 52140, 102.040
 52200, 110.317
 52260, 107.944
 52320, 113.302
 52380, 132.090
 52440, 131.368
 52500, 147.644
 52560, 145.662
 52620, 148.283
 52680, 159.238
 52740, 164.665
 52800, 169.322
 52860, 156.335
 52920, 174.956
 52980, 147.129
 53040, 163.214
 53100, 160.503
 53160, 169.092
 53220, 183.036
 53280, 172.425
 53340, 164.242
 53400, 153.365
 53460, 212.587
 53520, 209.995
 53580, 163.433
 53640, 118.534
 53700, 126.438
 53760, 138.111
 53820, 104.861
 53880, 124.187
 53940, 144.962
 54000, 172.536
 54060, 105.349
 54120, 102.844
 54180, 85.348
 54240, 98.127
 54300, 93.982
 54360, 120.716
 54420, 98.084
 54480, 94.918
 54540, 71.414
 54600, 75.954
 54660, 79.690
 54720, 93.722
 54780, 94.868
 54840, 131.093
 54900, -9999.000
 54960, 107.185
 55020, 110.990
 55080, 131.890
 55140, 130.412
 55200, 129.326
 55260, 103.730
 55320, 115.129
 55380, 98.505
 55440, 89.259
 55500, 94.656
 55560, 103.817
 55620, 104.415
 55680, 111.814
 55740, 102.274
 55800, 117.942
 55860, 103.567
 55920, 96.822
 55980, 109.909
 56040, 109.820
 56100, 105.261
 56160, 142.572
 56220, 124.981
 56280, 104.716
 56340, 89.135
 56400, 78.840
 56460, 91.259
 56520, 80.333
 56580, 70.000
 56640, 70.562
 56700, 83.199
 56760, -9999.000
 56820, 91.906
 56880, 88.240
 56940, 95.132
 57000, 87.594
 57060, 89.356
 57120, 89.014
 57180, 92.965
 57240, 124.011
 57300, 104.719
 57360, 91.687
 57420, 84.939
 57480, 85.703
 57540, 97.272
 57600, 78.512
 57660, 83.668
 57720, 80.165
 57780, 93.663
 57840, 103.092
 57900, 81.474
 57960, 100.389
 58020, 87.968
 58080, 73.467
 58140, 88.319
 58200, 59.150
 58260, 62.293
 58320, 54.544
 58380, 73.144
 58440, 57.599
 58500, 47.278
 58560, 49.227
 58620, -9999.000
 58680, 54.232
 58740, 70.443
 58800, 62.584
 58860, 65.240
 58920, 61.131
 58980, 64.433
 59040, 55.733
 59100, 61.444
 59160, 63.974
 59220, 58.303
 59280, 69.382
 59340, 61.459
 59400, 55.582
 59460, 49.182
 59520, 72.893
 59580, 42.889
 59640, 76.542
 59700, 85.028
 59760, 76.139
 59820, -9999.000
 59880, -9999.000
 59940, -9999.000
 60000, -9999.000
 60060, -9999.000
 60120, -9999.000
 60180, -9999.000
 60240, -9999.000
 60300, -9999.000
 60360, -9999.000
 60420, -9999.000
 60480, -9999.000
 60540, -9999.000
 60600, -9999.000
 60660, -9999.000
 60720, -9999.000
 60780, -9999.000
 60840, -9999.000
 60900, -9999.000
 60960, -9999.000
 61020, -9999.000
 61080, -9999.000
 61140, -9999.000
 61200, -9999.000
 61260, -9999.000
 61320, -9999.000
 61380, -9999.000
 61440, -9999.000
 61500, -9999.000
 61560, -9999.000
 61620, -9999.000
 61680, -9999.000
 61740, -9999.000
 61800, -9999.000
 61860, -9999.000
 61920, -9999.000
 61980, -9999.000
 62040, -9999.000
 62100, -9999.000
 62160, -9999.000
 62220, -9999.000
 62280, -9999.000
 62340, -9999.000
 62400, -9999.000
 62460, -9999.000
 62520, -9999.000
 62580, -9999.000
 62640, -9999.000
 62700, -9999.000
 62760, -9999.000
 62820, -9999.000
 62880, -9999.000
 62940, -9999.000
 63000, -9999.000
 63060, -9999.000
 63120, -9999.000
 63180, -9999.000
 63240, -9999.000
 63300, -9999.000
 63360, -9999.000
 63420, -9999.000
 63480, -9999.000
 63540, -9999.000
 63600, -9999.000
 63660, -9999.000
 63720, -9999.000
 63780, -9999.000
 63840, -9999.000
 63900, -9999.000
 63960, -9999.000
 64020, -9999.000
 64080, -9999.000
 64140, -9999.000
 64200, -9999.000
 64260, -9999.000
 64320, -9999.000
 64380, -9999.000
 64440, -9999.000
 64500, -9999.000
 64560, -9999.000
 64620, -9999.000
 64680, -9999.000
 64740, -9999.000
 64800, -9999.000
 64860, -9999.000
 64920, -9999.000
 64980, -9999.000
 65040, -9999.000
 65100, -9999.000
 65160, -9999.000
 65220, -9999.000
 65280, -9999.000
 65340, -9999.000
 65400, -9999.000
 65460, -9999.000
 65520, -9999.000
 65580, -9999.000
 65640, -9999.000
 65700, -9999.000
 65760, -9999.000
 65820, -9999.000
 65880, -9999.000
 65940, -9999.000
 66000, -9999.000
 66060, -9999.000
 66120, -9999.000
 66180, -9999.000
 66240, -9999.000
 66300, -9999.000
 66360, -9999.000
 66420, -9999.000
 66480, -9999.000
 66540, -9999.000
 66600, -9999.000
 66660, -9999.000
 66720, -9999.000
 66780, -9999.000
 66840, -9999.000
 66900, -9999.000
 66960, -9999.000
 67020, -9999.000
 67080, -9999.000
 67140, -9999.000
 67200, -9999.000
 67260, -9999.000
 67320, -9999.000
 67380, -9999.000
 67440, -9999.000
 67500, -9999.000
 67560, -9999.000
 67620, -9999.000
 67680, -9999.000
 67740, -9999.000
 67800, -9999.000
 67860, -9999.000
 67920, -9999.000
 67980, -9999.000
 68040, -9999.000
 68100, -9999.000
 68160, -9999.000
 68220, -9999.000
 68280, -9999.000
 68340, -9999.000
 68400, -9999.000
 68460, -9999.000
 68520, -9999.000
 68580, -9999.000
 68640, -9999.000
 68700, -9999.000
 68760, -9999.000
 68820, -9999.000
 68880, -9999.000
 68940, -9999.000
 69000, -9999.000
 69060, -9999.000
 69120, -9999.000
 69180, -9999.000
 69240, -9999.000
 69300, -9999.000
 69360, -9999.000
 69420, -9999.000
 69480, -9999.000
 69540, -9999.000
 69600, -9999.000
 69660, -9999.000
 69720, -9999.000
 69780, -9999.000
 69840, -9999.000
 69900, -9999.000
 69960, -9999.000
 70020, -9999.000
 70080, -9999.000
 70140, -9999.000
 70200, -9999.000
 70260, -9999.000
 70320, -9999.000
 70380, -9999.000
 70440, -9999.000
 70500, -9999.000
 70560, -9999.000
 70620, -9999.000
 70680, -9999.000
 70740, -9999.000
 70800, -9999.000
 70860, -9999.000
 70920, -9999.000
 70980, -9999.000
 71040, -9999.000
 71100, -9999.000
 71160, -9999.000
 71220, -9999.000
 71280, -9999.000
 71340, -9999.000
 71400, -9999.000
 71460, -9999.000
 71520, -9999.000
 71580, -9999.000
 71640, -9999.000
 71700, -9999.000
 71760, -9999.000
 71820, -9999.000
 71880, -9999.000
 71940, -9999.000
 72000, -9999.000
 72060, -9999.000
 72120, -9999.000
 72180, -9999.000
 72240, -9999.000
 72300, -9999.000
 72360, -9999.000
 72420, -9999.000
 72480, -9999.000
 72540, -9999.000
 72600, -9999.000
 72660, -9999.000
 72720, -9999.000
 72780, -9999.000
 72840, -9999.000
 72900, -9999.000
 72960, -9999.000
 73020, -9999.000
 73080, -9999.000
 73140, -9999.000
 73200, -9999.000
 73260, -9999.000
 73320, -9999.000
 73380, -9999.000
 73440, -9999.000
 73500, -9999.000
 73560, -9999.000
 73620, -9999.000
 73680, -9999.000
 73740, -9999.000
 73800, -9999.000
 73860, -9999.000
 73920, -9999.000
 73980, -9999.000
 74040, -9999.000
 74100, -9999.000
 74160, -9999.000
 74220, -9999.000
 74280, -9999.000
 74340, -9999.000
 74400, -9999.000
 74460, -9999.000
 74520, -9999.000
 74580, -9999.000
 74640, -9999.000
 74700, -9999.000
 74760, -9999.000
 74820, -9999.000
 74880, -9999.000
 74940, -9999.000
 75000, -9999.000
 75060, -9999.000
 75120, -9999.000
 75180, -9999.000
 75240, -9999.000
 75300, -9999.000
 75360, -9999.000
 75420, -9999.000
 75480, -9999.000
 75540, -9999.000
 75600, -9999.000
 75660, -9999.000
 75720, -9999.000
 75780, -9999.000
 75840, -9999.000
 75900, -9999.000
 75960, -9999.000
 76020, -9999.000
 76080, -9999.000
 76140, -9999.000
 76200, -9999.000
 76260, -9999.000
 76320, -9999.000
 76380, -9999.000
 76440, -9999.000
 76500, -9999.000
 76560, -9999.000
 76620, -9999.000
 76680, -9999.000
 76740, -9999.000
 76800, -9999.000
 76860, -9999.000
 76920, -9999.000
 76980, -9999.000
 77040, -9999.000
 77100, -9999.000
 77160, -9999.000
 77220, -9999.000
 77280, -9999.000
 77340, -9999.000
 77400, -9999.000
 77460, -9999.000
 77520, -9999.000
 77580, -9999.000
 77640, -9999.000
 77700, -9999.000
 77760, -9999.000
 77820, -9999.000
 77880, -9999.000
 77940, -9999.000
 78000, -9999.000
 78060, -9999.000
 78120, -9999.000
 78180, -9999.000
 78240, -9999.000
 78300, -9999.000
 78360, -9999.000
 78420, -9999.000
 78480, -9999.000
 78540, -9999.000
 78600, -9999.000
 78660, -9999.000
 78720, -9999.000
 78780, -9999.000
 78840, -9999.000
 78900, -9999.000
 78960, -9999.000
 79020, -9999.000
 79080, -9999.000
 79140, -9999.000
 79200, -9999.000
 79260, -9999.000
 79320, -9999.000
 79380, -9999.000
 79440, -9999.000
 79500, -9999.000
 79560, -9999.000
 79620, -9999.000
 79680, -9999.000
 79740, -9999.000
 79800, -9999.000
 79860, -9999.000
 79920, -9999.000
 79980, -9999.000
 80040, -9999.000
 80100, -9999.000
 80160, -9999.000
 80220, -9999.000
 80280, -9999.000
 80340, -9999.000
 80400, -9999.000
 80460, -9999.000
 80520, -9999.000
 80580, -9999.000
 80640, -9999.000
 80700, -9999.000
 80760, -9999.000
 80820, -9999.000
 80880, -9999.000
 80940, -9999.000
 81000, -9999.000
 81060, -9999.000
 81120, -9999.000
 81180, -9999.000
 81240, -9999.000
 81300, -9999.000
 81360, -9999.000
 81420, -9999.000
 81480, -9999.000
 81540, -9999.000
 81600, -9999.000
 81660, -9999.000
 81720, -9999.000
 81780, -9999.000
 81840, -9999.000
 81900, -9999.000
 81960, -9999.000
 82020, -9999.000
 82080, -9999.000
 82140, -9999.000
 82200, -9999.000
 82260, -9999.000
 82320, -9999.000
 82380, -9999.000
 82440, -9999.000
 82500, -9999.000
 82560, -9999.000
 82620, -9999.000
 82680, -9999.000
 82740, -9999.000
 82800, -9999.000
 82860,  2.243
 82920, -0.619
 82980,  0.927
 83040, -1.118
 83100,  3.479
 83160,  1.941
 83220,  4.631
 83280,  0.271
 83340,  5.160
 83400,  8.373
 83460, 13.938
 83520, 14.065
 83580, 10.391
 83640,  3.515
 83700,  3.251
 83760,  5.290
 83820,  7.165
 83880,  9.612
 83940, 18.361
 84000, 17.222
 84060,  8.708
 84120,  7.390
 84180,  5.545
 84240,  6.852
 84300,  3.587
 84360,  3.774
 84420,  3.765
 84480,  5.703
 84540,  5.715
 84600,  4.273
 84660,  5.949
 84720,  7.070
 84780, 11.966
 84840, 10.554
 84900,  5.231
 84960,  4.299
 85020,  1.536
 85080, -9999.000
 85140,  2.872
 85200,  4.929
 85260,  1.971
 85320,  5.208
 85380,  7.365
 85440,  4.440
 85500,  5.252
 85560,  5.318
 85620,  3.094
 85680,  4.346
 85740,  2.870
 85800,  3.151
 85860,  1.695
 85920,  3.207
 85980,  5.030
 86040,  7.269
 86100,  1.947
 86160,  2.177
 86220,  2.213
 86280,  1.957
 86340,  2.552
